,trial,S,T,gt,player_type,choice,conf,score,score_cumul,radio_RT,submit_RT,block,self-report,batch,subID,mode,psiturk_status,data_status,bonus
0,0,10,5,HG,pess,coop,100%,1,1,5041,9096,0,I don't think F.A. had a strategy. They made bad choices.,batch1,2001,live,4,complete,0.52
1,1,7,12,SG,pess,coop,100%,1,2,5832,8408,0,I don't think F.A. had a strategy. They made bad choices.,batch1,2001,live,4,complete,0.52
2,2,0,12,PD,pess,coop,100%,0,2,2912,5002,0,I don't think F.A. had a strategy. They made bad choices.,batch1,2001,live,4,complete,0.52
3,3,3,8,SH,pess,coop,70%,0,2,13547,16481,0,I don't think F.A. had a strategy. They made bad choices.,batch1,2001,live,4,complete,0.52
4,4,10,12,SG,pess,def,100%,0,2,4776,6758,0,I don't think F.A. had a strategy. They made bad choices.,batch1,2001,live,4,complete,0.52
5,5,0,8,SH,pess,coop,50%,0,2,4268,6444,0,I don't think F.A. had a strategy. They made bad choices.,batch1,2001,live,4,complete,0.52
6,6,7,8,HG,pess,coop,50%,1,3,12499,14506,0,I don't think F.A. had a strategy. They made bad choices.,batch1,2001,live,4,complete,0.52
7,7,0,15,PD,pess,def,80%,1,4,3553,5425,0,I don't think F.A. had a strategy. They made bad choices.,batch1,2001,live,4,complete,0.52
8,8,7,5,HG,pess,coop,80%,1,5,4717,6511,0,I don't think F.A. had a strategy. They made bad choices.,batch1,2001,live,4,complete,0.52
9,9,10,15,SG,pess,def,80%,0,5,5210,6778,0,I don't think F.A. had a strategy. They made bad choices.,batch1,2001,live,4,complete,0.52
10,10,3,5,SH,pess,coop,90%,0,5,2785,4343,0,I don't think F.A. had a strategy. They made bad choices.,batch1,2001,live,4,complete,0.52
11,11,3,15,PD,pess,def,70%,1,6,7631,9488,0,I don't think F.A. had a strategy. They made bad choices.,batch1,2001,live,4,complete,0.52
12,12,3,12,PD,pess,def,70%,1,7,5462,7208,0,I don't think F.A. had a strategy. They made bad choices.,batch1,2001,live,4,complete,0.52
13,13,0,5,SH,pess,coop,90%,0,7,4946,6600,0,I don't think F.A. had a strategy. They made bad choices.,batch1,2001,live,4,complete,0.52
14,14,7,15,SG,pess,def,90%,0,7,6014,7612,0,I don't think F.A. had a strategy. They made bad choices.,batch1,2001,live,4,complete,0.52
15,15,10,8,HG,pess,coop,80%,1,8,4812,6278,0,I don't think F.A. had a strategy. They made bad choices.,batch1,2001,live,4,complete,0.52
16,0,0,5,SH,opt,coop,100%,1,9,5163,6800,1,To maximize their earnings.,batch1,2001,live,4,complete,0.52
17,1,10,5,HG,opt,coop,90%,1,10,3696,5460,1,To maximize their earnings.,batch1,2001,live,4,complete,0.52
18,2,3,15,PD,opt,coop,100%,0,10,2046,3565,1,To maximize their earnings.,batch1,2001,live,4,complete,0.52
19,3,7,12,SG,opt,def,60%,1,11,7343,8840,1,To maximize their earnings.,batch1,2001,live,4,complete,0.52
20,4,10,8,HG,opt,coop,80%,1,12,2729,4467,1,To maximize their earnings.,batch1,2001,live,4,complete,0.52
21,5,0,15,PD,opt,def,100%,1,13,3417,4993,1,To maximize their earnings.,batch1,2001,live,4,complete,0.52
22,6,3,5,SH,opt,coop,100%,1,14,4581,6126,1,To maximize their earnings.,batch1,2001,live,4,complete,0.52
23,7,7,15,SG,opt,def,70%,1,15,4084,5903,1,To maximize their earnings.,batch1,2001,live,4,complete,0.52
24,8,3,12,PD,opt,def,90%,1,16,2953,4496,1,To maximize their earnings.,batch1,2001,live,4,complete,0.52
25,9,10,12,SG,opt,def,60%,1,17,4959,6830,1,To maximize their earnings.,batch1,2001,live,4,complete,0.52
26,10,7,8,HG,opt,coop,100%,1,18,2573,4088,1,To maximize their earnings.,batch1,2001,live,4,complete,0.52
27,11,3,8,SH,opt,coop,90%,1,19,3966,5535,1,To maximize their earnings.,batch1,2001,live,4,complete,0.52
28,12,0,12,PD,opt,def,100%,1,20,4020,6142,1,To maximize their earnings.,batch1,2001,live,4,complete,0.52
29,13,0,8,SH,opt,coop,100%,1,21,3636,5282,1,To maximize their earnings.,batch1,2001,live,4,complete,0.52
30,14,10,15,SG,opt,def,90%,1,22,3446,5216,1,To maximize their earnings.,batch1,2001,live,4,complete,0.52
31,15,7,5,HG,opt,coop,100%,1,23,2170,3778,1,To maximize their earnings.,batch1,2001,live,4,complete,0.52
0,0,10,8,HG,opt,coop,100%,1,1,7179,9735,0,The highest payout,batch1,2002,live,4,complete,0.44
1,1,7,12,SG,opt,def,70%,1,2,6035,7781,0,The highest payout,batch1,2002,live,4,complete,0.44
2,2,0,12,PD,opt,def,70%,1,3,22816,23980,0,The highest payout,batch1,2002,live,4,complete,0.44
3,3,0,8,SH,opt,coop,90%,1,4,17358,19780,0,The highest payout,batch1,2002,live,4,complete,0.44
4,4,3,8,SH,opt,coop,100%,1,5,19815,22301,0,The highest payout,batch1,2002,live,4,complete,0.44
5,5,3,15,PD,opt,def,60%,1,6,8172,10114,0,The highest payout,batch1,2002,live,4,complete,0.44
6,6,10,15,SG,opt,def,100%,1,7,5186,7302,0,The highest payout,batch1,2002,live,4,complete,0.44
7,7,10,5,HG,opt,coop,100%,1,8,4588,10053,0,The highest payout,batch1,2002,live,4,complete,0.44
8,8,3,12,PD,opt,coop,80%,0,8,3707,6018,0,The highest payout,batch1,2002,live,4,complete,0.44
9,9,7,8,HG,opt,coop,100%,1,9,2834,3982,0,The highest payout,batch1,2002,live,4,complete,0.44
10,10,10,12,SG,opt,coop,100%,0,9,4665,6191,0,The highest payout,batch1,2002,live,4,complete,0.44
11,11,0,5,SH,opt,coop,100%,1,10,26692,50623,0,The highest payout,batch1,2002,live,4,complete,0.44
12,12,0,15,PD,opt,coop,100%,0,10,3376,4247,0,The highest payout,batch1,2002,live,4,complete,0.44
13,13,7,15,SG,opt,coop,100%,0,10,2000,5138,0,The highest payout,batch1,2002,live,4,complete,0.44
14,14,7,5,HG,opt,coop,100%,1,11,2197,4297,0,The highest payout,batch1,2002,live,4,complete,0.44
15,15,3,5,SH,opt,coop,100%,1,12,2536,4274,0,The highest payout,batch1,2002,live,4,complete,0.44
16,0,7,12,SG,pess,def,100%,0,12,3419,5746,1,Most payoff,batch1,2002,live,4,complete,0.44
17,1,7,8,HG,pess,coop,100%,1,13,3143,3936,1,Most payoff,batch1,2002,live,4,complete,0.44
18,2,0,5,SH,pess,coop,100%,0,13,3784,4562,1,Most payoff,batch1,2002,live,4,complete,0.44
19,3,3,15,PD,pess,def,100%,1,14,3690,5138,1,Most payoff,batch1,2002,live,4,complete,0.44
20,4,0,12,PD,pess,coop,100%,0,14,12805,14259,1,Most payoff,batch1,2002,live,4,complete,0.44
21,5,0,8,SH,pess,coop,100%,0,14,4244,5596,1,Most payoff,batch1,2002,live,4,complete,0.44
22,6,10,12,SG,pess,def,100%,0,14,4383,5161,1,Most payoff,batch1,2002,live,4,complete,0.44
23,7,10,5,HG,pess,coop,100%,1,15,2976,3715,1,Most payoff,batch1,2002,live,4,complete,0.44
24,8,10,8,HG,pess,coop,100%,1,16,2016,4698,1,Most payoff,batch1,2002,live,4,complete,0.44
25,9,10,15,SG,pess,coop,100%,1,17,2531,3389,1,Most payoff,batch1,2002,live,4,complete,0.44
26,10,3,8,SH,pess,coop,100%,0,17,2559,6475,1,Most payoff,batch1,2002,live,4,complete,0.44
27,11,3,12,PD,pess,coop,100%,0,17,2612,9855,1,Most payoff,batch1,2002,live,4,complete,0.44
28,12,7,15,SG,pess,def,100%,0,17,5080,6542,1,Most payoff,batch1,2002,live,4,complete,0.44
29,13,7,5,HG,pess,coop,100%,1,18,12886,14380,1,Most payoff,batch1,2002,live,4,complete,0.44
30,14,3,5,SH,pess,coop,100%,0,18,2156,3690,1,Most payoff,batch1,2002,live,4,complete,0.44
31,15,0,15,PD,pess,def,100%,1,19,7548,11842,1,Most payoff,batch1,2002,live,4,complete,0.44
0,0,7,12,SG,opt,coop,70%,0,0,4951,6720,0,pick the option that has the higher possible return,batch1,2003,live,4,complete,0.3
1,1,7,8,HG,opt,coop,90%,1,1,3436,8243,0,pick the option that has the higher possible return,batch1,2003,live,4,complete,0.3
2,2,0,5,SH,opt,coop,50%,1,2,3704,5326,0,pick the option that has the higher possible return,batch1,2003,live,4,complete,0.3
3,3,3,15,PD,opt,def,80%,1,3,2432,3678,0,pick the option that has the higher possible return,batch1,2003,live,4,complete,0.3
4,4,0,12,PD,opt,def,80%,1,4,2337,3630,0,pick the option that has the higher possible return,batch1,2003,live,4,complete,0.3
5,5,0,8,SH,opt,coop,60%,1,5,3133,4279,0,pick the option that has the higher possible return,batch1,2003,live,4,complete,0.3
6,6,10,12,SG,opt,def,90%,1,6,2525,3810,0,pick the option that has the higher possible return,batch1,2003,live,4,complete,0.3
7,7,10,5,HG,opt,coop,100%,1,7,3512,5238,0,pick the option that has the higher possible return,batch1,2003,live,4,complete,0.3
8,8,10,8,HG,opt,coop,90%,1,8,2847,4109,0,pick the option that has the higher possible return,batch1,2003,live,4,complete,0.3
9,9,10,15,SG,opt,def,90%,1,9,3014,4156,0,pick the option that has the higher possible return,batch1,2003,live,4,complete,0.3
10,10,3,8,SH,opt,coop,90%,1,10,2076,3264,0,pick the option that has the higher possible return,batch1,2003,live,4,complete,0.3
11,11,3,12,PD,opt,def,100%,1,11,1967,4158,0,pick the option that has the higher possible return,batch1,2003,live,4,complete,0.3
12,12,7,15,SG,opt,def,100%,1,12,2881,4155,0,pick the option that has the higher possible return,batch1,2003,live,4,complete,0.3
13,13,7,5,HG,opt,coop,100%,1,13,1724,2927,0,pick the option that has the higher possible return,batch1,2003,live,4,complete,0.3
14,14,3,5,SH,opt,coop,100%,1,14,1800,2933,0,pick the option that has the higher possible return,batch1,2003,live,4,complete,0.3
15,15,0,15,PD,opt,def,100%,1,15,2541,4035,0,pick the option that has the higher possible return,batch1,2003,live,4,complete,0.3
16,0,3,5,SH,pess,coop,50%,0,15,4968,8285,1,to make sure the the lowest value possible to win was greater than the lowest possible of the other option.,batch1,2003,live,4,complete,0.3
17,1,0,15,PD,pess,def,80%,1,16,3240,4472,1,to make sure the the lowest value possible to win was greater than the lowest possible of the other option.,batch1,2003,live,4,complete,0.3
18,2,7,8,HG,pess,coop,60%,1,17,3438,4902,1,to make sure the the lowest value possible to win was greater than the lowest possible of the other option.,batch1,2003,live,4,complete,0.3
19,3,10,12,SG,pess,coop,80%,1,18,2736,4141,1,to make sure the the lowest value possible to win was greater than the lowest possible of the other option.,batch1,2003,live,4,complete,0.3
20,4,7,12,SG,pess,coop,80%,1,19,3065,4398,1,to make sure the the lowest value possible to win was greater than the lowest possible of the other option.,batch1,2003,live,4,complete,0.3
21,5,10,8,HG,pess,coop,90%,1,20,1447,4115,1,to make sure the the lowest value possible to win was greater than the lowest possible of the other option.,batch1,2003,live,4,complete,0.3
22,6,0,5,SH,pess,def,90%,1,21,1607,2798,1,to make sure the the lowest value possible to win was greater than the lowest possible of the other option.,batch1,2003,live,4,complete,0.3
23,7,0,12,PD,pess,def,100%,1,22,1191,3589,1,to make sure the the lowest value possible to win was greater than the lowest possible of the other option.,batch1,2003,live,4,complete,0.3
24,8,7,5,HG,pess,coop,100%,1,23,1620,2922,1,to make sure the the lowest value possible to win was greater than the lowest possible of the other option.,batch1,2003,live,4,complete,0.3
25,9,3,8,SH,pess,def,100%,1,24,2539,3655,1,to make sure the the lowest value possible to win was greater than the lowest possible of the other option.,batch1,2003,live,4,complete,0.3
26,10,3,12,PD,pess,def,100%,1,25,2994,4158,1,to make sure the the lowest value possible to win was greater than the lowest possible of the other option.,batch1,2003,live,4,complete,0.3
27,11,7,15,SG,pess,coop,100%,1,26,2955,4024,1,to make sure the the lowest value possible to win was greater than the lowest possible of the other option.,batch1,2003,live,4,complete,0.3
28,12,3,15,PD,pess,def,100%,1,27,2332,4222,1,to make sure the the lowest value possible to win was greater than the lowest possible of the other option.,batch1,2003,live,4,complete,0.3
29,13,10,5,HG,pess,coop,100%,1,28,1428,2613,1,to make sure the the lowest value possible to win was greater than the lowest possible of the other option.,batch1,2003,live,4,complete,0.3
30,14,10,15,SG,pess,coop,100%,1,29,2008,3045,1,to make sure the the lowest value possible to win was greater than the lowest possible of the other option.,batch1,2003,live,4,complete,0.3
31,15,0,8,SH,pess,def,100%,1,30,1604,2748,1,to make sure the the lowest value possible to win was greater than the lowest possible of the other option.,batch1,2003,live,4,complete,0.3
0,0,3,8,SH,pess,def,60%,1,1,7936,9284,0,"maximize winnings but minimize losses, to be fair too",batch1,2004,live,4,complete,0.58
1,1,0,15,PD,pess,def,70%,1,2,4083,4755,0,"maximize winnings but minimize losses, to be fair too",batch1,2004,live,4,complete,0.58
2,2,7,8,HG,pess,def,70%,0,2,2227,2523,0,"maximize winnings but minimize losses, to be fair too",batch1,2004,live,4,complete,0.58
3,3,7,15,SG,pess,def,80%,0,2,2750,4156,0,"maximize winnings but minimize losses, to be fair too",batch1,2004,live,4,complete,0.58
4,4,3,5,SH,pess,def,60%,1,3,1579,2339,0,"maximize winnings but minimize losses, to be fair too",batch1,2004,live,4,complete,0.58
5,5,7,5,HG,pess,coop,40%,1,4,2503,2839,0,"maximize winnings but minimize losses, to be fair too",batch1,2004,live,4,complete,0.58
6,6,0,12,PD,pess,def,60%,1,5,4598,5107,0,"maximize winnings but minimize losses, to be fair too",batch1,2004,live,4,complete,0.58
7,7,10,12,SG,pess,def,70%,0,5,1425,2164,0,"maximize winnings but minimize losses, to be fair too",batch1,2004,live,4,complete,0.58
8,8,7,12,SG,pess,def,50%,0,5,1628,2786,0,"maximize winnings but minimize losses, to be fair too",batch1,2004,live,4,complete,0.58
9,9,3,15,PD,pess,def,70%,1,6,1263,2012,0,"maximize winnings but minimize losses, to be fair too",batch1,2004,live,4,complete,0.58
10,10,0,8,SH,pess,def,80%,1,7,1202,1997,0,"maximize winnings but minimize losses, to be fair too",batch1,2004,live,4,complete,0.58
11,11,10,5,HG,pess,coop,50%,1,8,1969,2819,0,"maximize winnings but minimize losses, to be fair too",batch1,2004,live,4,complete,0.58
12,12,10,15,SG,pess,def,70%,0,8,1947,2709,0,"maximize winnings but minimize losses, to be fair too",batch1,2004,live,4,complete,0.58
13,13,0,5,SH,pess,coop,70%,0,8,1618,2492,0,"maximize winnings but minimize losses, to be fair too",batch1,2004,live,4,complete,0.58
14,14,10,8,HG,pess,coop,40%,1,9,1420,2654,0,"maximize winnings but minimize losses, to be fair too",batch1,2004,live,4,complete,0.58
15,15,3,12,PD,pess,def,80%,1,10,2592,3142,0,"maximize winnings but minimize losses, to be fair too",batch1,2004,live,4,complete,0.58
16,0,7,15,SG,opt,def,70%,1,11,4598,5200,1,maximize gains and minimize losses and to be fair.,batch1,2004,live,4,complete,0.58
17,1,0,12,PD,opt,def,80%,1,12,3717,4370,1,maximize gains and minimize losses and to be fair.,batch1,2004,live,4,complete,0.58
18,2,3,5,SH,opt,coop,80%,1,13,5411,6331,1,maximize gains and minimize losses and to be fair.,batch1,2004,live,4,complete,0.58
19,3,7,5,HG,opt,coop,80%,1,14,1682,2408,1,maximize gains and minimize losses and to be fair.,batch1,2004,live,4,complete,0.58
20,4,3,12,PD,opt,def,80%,1,15,3520,3852,1,maximize gains and minimize losses and to be fair.,batch1,2004,live,4,complete,0.58
21,5,7,8,HG,opt,coop,60%,1,16,1996,3024,1,maximize gains and minimize losses and to be fair.,batch1,2004,live,4,complete,0.58
22,6,0,8,SH,opt,coop,70%,1,17,3626,4278,1,maximize gains and minimize losses and to be fair.,batch1,2004,live,4,complete,0.58
23,7,10,15,SG,opt,coop,80%,0,17,3040,3840,1,maximize gains and minimize losses and to be fair.,batch1,2004,live,4,complete,0.58
24,8,10,12,SG,opt,coop,80%,0,17,2149,2719,1,maximize gains and minimize losses and to be fair.,batch1,2004,live,4,complete,0.58
25,9,0,15,PD,opt,def,80%,1,18,3066,3619,1,maximize gains and minimize losses and to be fair.,batch1,2004,live,4,complete,0.58
26,10,0,5,SH,opt,coop,70%,1,19,2740,3404,1,maximize gains and minimize losses and to be fair.,batch1,2004,live,4,complete,0.58
27,11,10,8,HG,opt,coop,70%,1,20,2210,4081,1,maximize gains and minimize losses and to be fair.,batch1,2004,live,4,complete,0.58
28,12,7,12,SG,opt,def,70%,1,21,2287,2775,1,maximize gains and minimize losses and to be fair.,batch1,2004,live,4,complete,0.58
29,13,3,8,SH,opt,coop,70%,1,22,3594,4568,1,maximize gains and minimize losses and to be fair.,batch1,2004,live,4,complete,0.58
30,14,3,15,PD,opt,def,70%,1,23,2149,2485,1,maximize gains and minimize losses and to be fair.,batch1,2004,live,4,complete,0.58
31,15,10,5,HG,opt,coop,70%,1,24,2850,6306,1,maximize gains and minimize losses and to be fair.,batch1,2004,live,4,complete,0.58
0,0,7,12,SG,opt,coop,70%,0,0,15334,17808,0,to get the most points.,batch1,2005,live,4,complete,0.63
1,1,7,8,HG,opt,def,80%,0,0,2943,4342,0,to get the most points.,batch1,2005,live,4,complete,0.63
2,2,0,5,SH,opt,def,90%,0,0,4129,5655,0,to get the most points.,batch1,2005,live,4,complete,0.63
3,3,3,15,PD,opt,def,100%,1,1,8294,9136,0,to get the most points.,batch1,2005,live,4,complete,0.63
4,4,0,12,PD,opt,def,90%,1,2,2961,3498,0,to get the most points.,batch1,2005,live,4,complete,0.63
5,5,0,8,SH,opt,def,70%,0,2,8220,8756,0,to get the most points.,batch1,2005,live,4,complete,0.63
6,6,10,12,SG,opt,coop,90%,0,2,1752,3028,0,to get the most points.,batch1,2005,live,4,complete,0.63
7,7,10,5,HG,opt,coop,100%,1,3,11028,12450,0,to get the most points.,batch1,2005,live,4,complete,0.63
8,8,10,8,HG,opt,coop,90%,1,4,2377,3225,0,to get the most points.,batch1,2005,live,4,complete,0.63
9,9,10,15,SG,opt,coop,60%,0,4,1961,3120,0,to get the most points.,batch1,2005,live,4,complete,0.63
10,10,3,8,SH,opt,coop,60%,1,5,2780,3838,0,to get the most points.,batch1,2005,live,4,complete,0.63
11,11,3,12,PD,opt,def,50%,1,6,12305,13261,0,to get the most points.,batch1,2005,live,4,complete,0.63
12,12,7,15,SG,opt,def,50%,1,7,2394,3693,0,to get the most points.,batch1,2005,live,4,complete,0.63
13,13,7,5,HG,opt,coop,100%,1,8,2642,3763,0,to get the most points.,batch1,2005,live,4,complete,0.63
14,14,3,5,SH,opt,coop,60%,1,9,2312,3106,0,to get the most points.,batch1,2005,live,4,complete,0.63
15,15,0,15,PD,opt,def,90%,1,10,3471,4146,0,to get the most points.,batch1,2005,live,4,complete,0.63
16,0,10,5,HG,pess,coop,100%,1,11,17728,19168,1,"to be fair, but also get the most points.",batch1,2005,live,4,complete,0.63
17,1,3,5,SH,pess,coop,70%,0,11,2584,3082,1,"to be fair, but also get the most points.",batch1,2005,live,4,complete,0.63
18,2,0,15,PD,pess,def,100%,1,12,1919,3281,1,"to be fair, but also get the most points.",batch1,2005,live,4,complete,0.63
19,3,7,12,SG,pess,def,60%,0,12,4245,4820,1,"to be fair, but also get the most points.",batch1,2005,live,4,complete,0.63
20,4,10,15,SG,pess,coop,50%,1,13,3015,4236,1,"to be fair, but also get the most points.",batch1,2005,live,4,complete,0.63
21,5,10,8,HG,pess,coop,100%,1,14,1374,2782,1,"to be fair, but also get the most points.",batch1,2005,live,4,complete,0.63
22,6,0,12,PD,pess,def,90%,1,15,2401,3087,1,"to be fair, but also get the most points.",batch1,2005,live,4,complete,0.63
23,7,0,5,SH,pess,def,70%,1,16,2990,3550,1,"to be fair, but also get the most points.",batch1,2005,live,4,complete,0.63
24,8,7,15,SG,pess,def,70%,0,16,2740,3728,1,"to be fair, but also get the most points.",batch1,2005,live,4,complete,0.63
25,9,0,8,SH,pess,def,80%,1,17,1866,2978,1,"to be fair, but also get the most points.",batch1,2005,live,4,complete,0.63
26,10,3,15,PD,pess,def,90%,1,18,1538,3279,1,"to be fair, but also get the most points.",batch1,2005,live,4,complete,0.63
27,11,7,5,HG,pess,coop,90%,1,19,4578,5683,1,"to be fair, but also get the most points.",batch1,2005,live,4,complete,0.63
28,12,3,12,PD,pess,def,100%,1,20,1631,2735,1,"to be fair, but also get the most points.",batch1,2005,live,4,complete,0.63
29,13,10,12,SG,pess,coop,100%,1,21,2599,3890,1,"to be fair, but also get the most points.",batch1,2005,live,4,complete,0.63
30,14,3,8,SH,pess,def,80%,1,22,2153,3762,1,"to be fair, but also get the most points.",batch1,2005,live,4,complete,0.63
31,15,7,8,HG,pess,coop,100%,1,23,2106,3662,1,"to be fair, but also get the most points.",batch1,2005,live,4,complete,0.63
0,0,7,12,SG,opt,def,80%,1,1,5890,9699,0,highest number,batch1,2007,live,4,complete,0.22
1,1,7,8,HG,opt,coop,80%,1,2,7120,8343,0,highest number,batch1,2007,live,4,complete,0.22
2,2,0,5,SH,opt,coop,70%,1,3,11609,12960,0,highest number,batch1,2007,live,4,complete,0.22
3,3,3,15,PD,opt,def,90%,1,4,3852,5653,0,highest number,batch1,2007,live,4,complete,0.22
4,4,0,12,PD,opt,def,90%,1,5,3231,4927,0,highest number,batch1,2007,live,4,complete,0.22
5,5,0,8,SH,opt,def,80%,0,5,4115,5235,0,highest number,batch1,2007,live,4,complete,0.22
6,6,10,12,SG,opt,def,90%,1,6,3044,6937,0,highest number,batch1,2007,live,4,complete,0.22
7,7,10,5,HG,opt,coop,100%,1,7,7614,8838,0,highest number,batch1,2007,live,4,complete,0.22
8,8,10,8,HG,opt,coop,90%,1,8,3972,5331,0,highest number,batch1,2007,live,4,complete,0.22
9,9,10,15,SG,opt,def,100%,1,9,3441,5832,0,highest number,batch1,2007,live,4,complete,0.22
10,10,3,8,SH,opt,coop,100%,1,10,3759,5453,0,highest number,batch1,2007,live,4,complete,0.22
11,11,3,12,PD,opt,def,100%,1,11,4277,5989,0,highest number,batch1,2007,live,4,complete,0.22
12,12,7,15,SG,opt,def,90%,1,12,2019,3442,0,highest number,batch1,2007,live,4,complete,0.22
13,13,7,5,HG,opt,coop,90%,1,13,2896,4160,0,highest number,batch1,2007,live,4,complete,0.22
14,14,3,5,SH,opt,coop,100%,1,14,3760,5401,0,highest number,batch1,2007,live,4,complete,0.22
15,15,0,15,PD,opt,def,90%,1,15,2597,3821,0,highest number,batch1,2007,live,4,complete,0.22
16,0,0,8,SH,pess,coop,90%,0,15,5360,8576,1,Highest number,batch1,2007,live,4,complete,0.22
17,1,3,15,PD,pess,def,80%,1,16,3701,5508,1,Highest number,batch1,2007,live,4,complete,0.22
18,2,10,12,SG,pess,def,90%,0,16,3050,7458,1,Highest number,batch1,2007,live,4,complete,0.22
19,3,7,8,HG,pess,coop,80%,1,17,4406,5967,1,Highest number,batch1,2007,live,4,complete,0.22
20,4,10,8,HG,pess,coop,90%,1,18,2904,5359,1,Highest number,batch1,2007,live,4,complete,0.22
21,5,0,15,PD,pess,def,90%,1,19,4086,5288,1,Highest number,batch1,2007,live,4,complete,0.22
22,6,3,8,SH,pess,coop,90%,0,19,1912,3656,1,Highest number,batch1,2007,live,4,complete,0.22
23,7,7,15,SG,pess,def,90%,0,19,2062,3382,1,Highest number,batch1,2007,live,4,complete,0.22
24,8,0,12,PD,pess,coop,80%,0,19,4051,5548,1,Highest number,batch1,2007,live,4,complete,0.22
25,9,3,5,SH,pess,coop,90%,0,19,3035,6828,1,Highest number,batch1,2007,live,4,complete,0.22
26,10,7,12,SG,pess,def,90%,0,19,4313,6025,1,Highest number,batch1,2007,live,4,complete,0.22
27,11,10,5,HG,pess,coop,80%,1,20,3355,4787,1,Highest number,batch1,2007,live,4,complete,0.22
28,12,0,5,SH,pess,coop,90%,0,20,3127,6223,1,Highest number,batch1,2007,live,4,complete,0.22
29,13,7,5,HG,pess,coop,90%,1,21,3476,5091,1,Highest number,batch1,2007,live,4,complete,0.22
30,14,3,12,PD,pess,def,100%,1,22,2133,3781,1,Highest number,batch1,2007,live,4,complete,0.22
31,15,10,15,SG,pess,def,90%,0,22,3740,5388,1,Highest number,batch1,2007,live,4,complete,0.22
0,0,3,12,PD,pess,coop,60%,0,0,5727,8109,0,"not sure, he sweitched up a lot.",batch1,2010,live,4,complete,0.21
1,1,7,8,HG,pess,def,70%,0,0,5272,6771,0,"not sure, he sweitched up a lot.",batch1,2010,live,4,complete,0.21
2,2,3,8,SH,pess,def,70%,1,1,1831,2958,0,"not sure, he sweitched up a lot.",batch1,2010,live,4,complete,0.21
3,3,7,12,SG,pess,def,50%,0,1,2488,3524,0,"not sure, he sweitched up a lot.",batch1,2010,live,4,complete,0.21
4,4,0,15,PD,pess,coop,80%,0,1,2075,3522,0,"not sure, he sweitched up a lot.",batch1,2010,live,4,complete,0.21
5,5,0,8,SH,pess,def,70%,1,2,1675,2612,0,"not sure, he sweitched up a lot.",batch1,2010,live,4,complete,0.21
6,6,7,15,SG,pess,coop,70%,1,3,2831,3712,0,"not sure, he sweitched up a lot.",batch1,2010,live,4,complete,0.21
7,7,7,5,HG,pess,coop,80%,1,4,3079,4133,0,"not sure, he sweitched up a lot.",batch1,2010,live,4,complete,0.21
8,8,3,15,PD,pess,def,50%,1,5,1937,2700,0,"not sure, he sweitched up a lot.",batch1,2010,live,4,complete,0.21
9,9,0,5,SH,pess,def,70%,1,6,3053,3969,0,"not sure, he sweitched up a lot.",batch1,2010,live,4,complete,0.21
10,10,10,5,HG,pess,coop,80%,1,7,1898,2795,0,"not sure, he sweitched up a lot.",batch1,2010,live,4,complete,0.21
11,11,10,15,SG,pess,def,60%,0,7,1727,2504,0,"not sure, he sweitched up a lot.",batch1,2010,live,4,complete,0.21
12,12,10,12,SG,pess,coop,70%,1,8,8408,10163,0,"not sure, he sweitched up a lot.",batch1,2010,live,4,complete,0.21
13,13,0,12,PD,pess,def,70%,1,9,2478,3597,0,"not sure, he sweitched up a lot.",batch1,2010,live,4,complete,0.21
14,14,3,5,SH,pess,coop,80%,0,9,1813,5450,0,"not sure, he sweitched up a lot.",batch1,2010,live,4,complete,0.21
15,15,10,8,HG,pess,def,70%,0,9,1872,2898,0,"not sure, he sweitched up a lot.",batch1,2010,live,4,complete,0.21
16,0,10,12,SG,opt,def,70%,1,10,4545,5699,1,try and get more then me,batch1,2010,live,4,complete,0.21
17,1,0,12,PD,opt,coop,60%,0,10,3114,4446,1,try and get more then me,batch1,2010,live,4,complete,0.21
18,2,3,5,SH,opt,coop,90%,1,11,5804,7021,1,try and get more then me,batch1,2010,live,4,complete,0.21
19,3,7,8,HG,opt,coop,80%,1,12,7414,8526,1,try and get more then me,batch1,2010,live,4,complete,0.21
20,4,10,5,HG,opt,def,70%,0,12,1862,4398,1,try and get more then me,batch1,2010,live,4,complete,0.21
21,5,3,12,PD,opt,def,70%,1,13,1726,2873,1,try and get more then me,batch1,2010,live,4,complete,0.21
22,6,3,8,SH,opt,coop,80%,1,14,1889,3778,1,try and get more then me,batch1,2010,live,4,complete,0.21
23,7,10,15,SG,opt,def,80%,1,15,1720,2982,1,try and get more then me,batch1,2010,live,4,complete,0.21
24,8,0,15,PD,opt,def,80%,1,16,32117,33290,1,try and get more then me,batch1,2010,live,4,complete,0.21
25,9,7,12,SG,opt,def,80%,1,17,2699,4408,1,try and get more then me,batch1,2010,live,4,complete,0.21
26,10,0,5,SH,opt,coop,80%,1,18,1781,8224,1,try and get more then me,batch1,2010,live,4,complete,0.21
27,11,7,5,HG,opt,coop,80%,1,19,5041,6260,1,try and get more then me,batch1,2010,live,4,complete,0.21
28,12,10,8,HG,opt,def,80%,0,19,2632,5864,1,try and get more then me,batch1,2010,live,4,complete,0.21
29,13,0,8,SH,opt,coop,80%,1,20,13141,14081,1,try and get more then me,batch1,2010,live,4,complete,0.21
30,14,7,15,SG,opt,def,90%,1,21,7100,8185,1,try and get more then me,batch1,2010,live,4,complete,0.21
31,15,3,15,PD,opt,coop,80%,0,21,2113,3095,1,try and get more then me,batch1,2010,live,4,complete,0.21
0,0,10,5,HG,pess,def,80%,0,0,11744,20151,0,They are trying to get highest payout.,batch1,2011,live,4,complete,0.54
1,1,7,12,SG,pess,coop,60%,1,1,5044,8277,0,They are trying to get highest payout.,batch1,2011,live,4,complete,0.54
2,2,0,12,PD,pess,def,60%,1,2,8816,10231,0,They are trying to get highest payout.,batch1,2011,live,4,complete,0.54
3,3,3,8,SH,pess,coop,80%,0,2,2852,6812,0,They are trying to get highest payout.,batch1,2011,live,4,complete,0.54
4,4,10,12,SG,pess,coop,90%,1,3,4545,11004,0,They are trying to get highest payout.,batch1,2011,live,4,complete,0.54
5,5,0,8,SH,pess,coop,100%,0,3,2665,7257,0,They are trying to get highest payout.,batch1,2011,live,4,complete,0.54
6,6,7,8,HG,pess,coop,70%,1,4,4027,5603,0,They are trying to get highest payout.,batch1,2011,live,4,complete,0.54
7,7,0,15,PD,pess,def,90%,1,5,5132,7436,0,They are trying to get highest payout.,batch1,2011,live,4,complete,0.54
8,8,7,5,HG,pess,coop,60%,1,6,4721,6268,0,They are trying to get highest payout.,batch1,2011,live,4,complete,0.54
9,9,10,15,SG,pess,def,80%,0,6,2397,3709,0,They are trying to get highest payout.,batch1,2011,live,4,complete,0.54
10,10,3,5,SH,pess,coop,80%,0,6,2302,3788,0,They are trying to get highest payout.,batch1,2011,live,4,complete,0.54
11,11,3,15,PD,pess,def,90%,1,7,1925,3479,0,They are trying to get highest payout.,batch1,2011,live,4,complete,0.54
12,12,3,12,PD,pess,def,90%,1,8,2429,4102,0,They are trying to get highest payout.,batch1,2011,live,4,complete,0.54
13,13,0,5,SH,pess,coop,100%,0,8,1904,4132,0,They are trying to get highest payout.,batch1,2011,live,4,complete,0.54
14,14,7,15,SG,pess,def,60%,0,8,2501,4525,0,They are trying to get highest payout.,batch1,2011,live,4,complete,0.54
15,15,10,8,HG,pess,coop,90%,1,9,4179,5729,0,They are trying to get highest payout.,batch1,2011,live,4,complete,0.54
16,0,7,12,SG,opt,def,60%,1,10,6416,7685,1,Trying to get highest payout,batch1,2011,live,4,complete,0.54
17,1,7,8,HG,opt,coop,80%,1,11,3020,4427,1,Trying to get highest payout,batch1,2011,live,4,complete,0.54
18,2,0,5,SH,opt,coop,90%,1,12,2487,4115,1,Trying to get highest payout,batch1,2011,live,4,complete,0.54
19,3,3,15,PD,opt,def,70%,1,13,1889,3279,1,Trying to get highest payout,batch1,2011,live,4,complete,0.54
20,4,0,12,PD,opt,def,80%,1,14,1865,3273,1,Trying to get highest payout,batch1,2011,live,4,complete,0.54
21,5,0,8,SH,opt,coop,60%,1,15,2444,3766,1,Trying to get highest payout,batch1,2011,live,4,complete,0.54
22,6,10,12,SG,opt,def,60%,1,16,2677,4022,1,Trying to get highest payout,batch1,2011,live,4,complete,0.54
23,7,10,5,HG,opt,coop,80%,1,17,2553,3889,1,Trying to get highest payout,batch1,2011,live,4,complete,0.54
24,8,10,8,HG,opt,coop,80%,1,18,3170,4419,1,Trying to get highest payout,batch1,2011,live,4,complete,0.54
25,9,10,15,SG,opt,def,80%,1,19,1791,3466,1,Trying to get highest payout,batch1,2011,live,4,complete,0.54
26,10,3,8,SH,opt,coop,100%,1,20,2200,3566,1,Trying to get highest payout,batch1,2011,live,4,complete,0.54
27,11,3,12,PD,opt,def,90%,1,21,2021,3187,1,Trying to get highest payout,batch1,2011,live,4,complete,0.54
28,12,7,15,SG,opt,def,80%,1,22,1784,3347,1,Trying to get highest payout,batch1,2011,live,4,complete,0.54
29,13,7,5,HG,opt,coop,80%,1,23,2293,3737,1,Trying to get highest payout,batch1,2011,live,4,complete,0.54
30,14,3,5,SH,opt,coop,100%,1,24,5375,7315,1,Trying to get highest payout,batch1,2011,live,4,complete,0.54
31,15,0,15,PD,opt,def,100%,1,25,2371,3986,1,Trying to get highest payout,batch1,2011,live,4,complete,0.54
0,0,10,8,HG,pess,coop,80%,1,1,6584,8460,0,"I have no idea, he seemed almost to be choosing randomly.",batch2,3000,live,4,complete,0.59
1,1,3,5,SH,pess,coop,90%,0,1,2771,4627,0,"I have no idea, he seemed almost to be choosing randomly.",batch2,3000,live,4,complete,0.59
2,2,7,12,SG,pess,def,50%,0,1,3409,4438,0,"I have no idea, he seemed almost to be choosing randomly.",batch2,3000,live,4,complete,0.59
3,3,3,12,PD,pess,def,60%,1,2,2647,5115,0,"I have no idea, he seemed almost to be choosing randomly.",batch2,3000,live,4,complete,0.59
4,4,7,5,HG,pess,coop,80%,1,3,1573,2956,0,"I have no idea, he seemed almost to be choosing randomly.",batch2,3000,live,4,complete,0.59
5,5,10,15,SG,pess,def,60%,0,3,2454,3962,0,"I have no idea, he seemed almost to be choosing randomly.",batch2,3000,live,4,complete,0.59
6,6,0,12,PD,pess,coop,70%,0,3,4605,5815,0,"I have no idea, he seemed almost to be choosing randomly.",batch2,3000,live,4,complete,0.59
7,7,0,5,SH,pess,coop,80%,0,3,1788,3402,0,"I have no idea, he seemed almost to be choosing randomly.",batch2,3000,live,4,complete,0.59
8,8,10,5,HG,pess,coop,60%,1,4,3909,5173,0,"I have no idea, he seemed almost to be choosing randomly.",batch2,3000,live,4,complete,0.59
9,9,3,8,SH,pess,coop,70%,0,4,1407,4679,0,"I have no idea, he seemed almost to be choosing randomly.",batch2,3000,live,4,complete,0.59
10,10,7,15,SG,pess,def,60%,0,4,2944,4056,0,"I have no idea, he seemed almost to be choosing randomly.",batch2,3000,live,4,complete,0.59
11,11,3,15,PD,pess,coop,40%,0,4,3387,4672,0,"I have no idea, he seemed almost to be choosing randomly.",batch2,3000,live,4,complete,0.59
12,12,0,15,PD,pess,coop,40%,0,4,1698,3049,0,"I have no idea, he seemed almost to be choosing randomly.",batch2,3000,live,4,complete,0.59
13,13,0,8,SH,pess,coop,70%,0,4,2584,4288,0,"I have no idea, he seemed almost to be choosing randomly.",batch2,3000,live,4,complete,0.59
14,14,10,12,SG,pess,def,60%,0,4,2624,5605,0,"I have no idea, he seemed almost to be choosing randomly.",batch2,3000,live,4,complete,0.59
15,15,7,8,HG,pess,coop,30%,1,5,3907,5299,0,"I have no idea, he seemed almost to be choosing randomly.",batch2,3000,live,4,complete,0.59
16,0,7,15,SG,opt,def,40%,1,6,3009,6131,1,"To maximize their chance for points, regardless of the odds",batch2,3000,live,4,complete,0.59
17,1,0,12,PD,opt,def,40%,1,7,4487,5201,1,"To maximize their chance for points, regardless of the odds",batch2,3000,live,4,complete,0.59
18,2,3,5,SH,opt,coop,60%,1,8,2088,3488,1,"To maximize their chance for points, regardless of the odds",batch2,3000,live,4,complete,0.59
19,3,7,5,HG,opt,coop,70%,1,9,295464,297145,1,"To maximize their chance for points, regardless of the odds",batch2,3000,live,4,complete,0.59
20,4,3,12,PD,opt,def,40%,1,10,4009,7537,1,"To maximize their chance for points, regardless of the odds",batch2,3000,live,4,complete,0.59
21,5,7,8,HG,opt,coop,70%,1,11,6291,7569,1,"To maximize their chance for points, regardless of the odds",batch2,3000,live,4,complete,0.59
22,6,0,8,SH,opt,coop,70%,1,12,269186,270500,1,"To maximize their chance for points, regardless of the odds",batch2,3000,live,4,complete,0.59
23,7,10,15,SG,opt,def,60%,1,13,1948,3141,1,"To maximize their chance for points, regardless of the odds",batch2,3000,live,4,complete,0.59
24,8,10,12,SG,opt,coop,50%,0,13,949804,950939,1,"To maximize their chance for points, regardless of the odds",batch2,3000,live,4,complete,0.59
25,9,0,15,PD,opt,def,70%,1,14,2097,3809,1,"To maximize their chance for points, regardless of the odds",batch2,3000,live,4,complete,0.59
26,10,0,5,SH,opt,coop,70%,1,15,1932,3172,1,"To maximize their chance for points, regardless of the odds",batch2,3000,live,4,complete,0.59
27,11,10,8,HG,opt,coop,80%,1,16,3786,5304,1,"To maximize their chance for points, regardless of the odds",batch2,3000,live,4,complete,0.59
28,12,7,12,SG,opt,def,70%,1,17,1684,3314,1,"To maximize their chance for points, regardless of the odds",batch2,3000,live,4,complete,0.59
29,13,3,8,SH,opt,coop,80%,1,18,2033,4738,1,"To maximize their chance for points, regardless of the odds",batch2,3000,live,4,complete,0.59
30,14,3,15,PD,opt,def,80%,1,19,1779,2930,1,"To maximize their chance for points, regardless of the odds",batch2,3000,live,4,complete,0.59
31,15,10,5,HG,opt,def,90%,0,19,2416,4051,1,"To maximize their chance for points, regardless of the odds",batch2,3000,live,4,complete,0.59
0,0,3,8,SH,opt,def,80%,0,0,12432,16920,0,Definitely maximize earnings.,batch2,3002,live,4,complete,0.46
1,1,0,15,PD,opt,def,80%,1,1,7116,10641,0,Definitely maximize earnings.,batch2,3002,live,4,complete,0.46
2,2,7,8,HG,opt,def,60%,0,1,9765,12825,0,Definitely maximize earnings.,batch2,3002,live,4,complete,0.46
3,3,7,15,SG,opt,coop,80%,0,1,10615,15010,0,Definitely maximize earnings.,batch2,3002,live,4,complete,0.46
4,4,3,5,SH,opt,def,80%,0,1,6997,10571,0,Definitely maximize earnings.,batch2,3002,live,4,complete,0.46
5,5,7,5,HG,opt,coop,50%,1,2,5910,10130,0,Definitely maximize earnings.,batch2,3002,live,4,complete,0.46
6,6,0,12,PD,opt,def,90%,1,3,8165,12261,0,Definitely maximize earnings.,batch2,3002,live,4,complete,0.46
7,7,10,12,SG,opt,def,60%,1,4,7250,9745,0,Definitely maximize earnings.,batch2,3002,live,4,complete,0.46
8,8,7,12,SG,opt,def,60%,1,5,8492,11225,0,Definitely maximize earnings.,batch2,3002,live,4,complete,0.46
9,9,3,15,PD,opt,def,50%,1,6,6423,9132,0,Definitely maximize earnings.,batch2,3002,live,4,complete,0.46
10,10,0,8,SH,opt,def,70%,0,6,6182,8844,0,Definitely maximize earnings.,batch2,3002,live,4,complete,0.46
11,11,10,5,HG,opt,coop,70%,1,7,7449,10852,0,Definitely maximize earnings.,batch2,3002,live,4,complete,0.46
12,12,10,15,SG,opt,def,80%,1,8,11592,14348,0,Definitely maximize earnings.,batch2,3002,live,4,complete,0.46
13,13,0,5,SH,opt,coop,40%,1,9,8664,13864,0,Definitely maximize earnings.,batch2,3002,live,4,complete,0.46
14,14,10,8,HG,opt,coop,80%,1,10,6796,10260,0,Definitely maximize earnings.,batch2,3002,live,4,complete,0.46
15,15,3,12,PD,opt,def,80%,1,11,6895,9770,0,Definitely maximize earnings.,batch2,3002,live,4,complete,0.46
16,0,10,5,HG,pess,coop,50%,1,12,10365,13560,1,Try to be fair or even things out.,batch2,3002,live,4,complete,0.46
17,1,0,15,PD,pess,def,50%,1,13,8044,10553,1,Try to be fair or even things out.,batch2,3002,live,4,complete,0.46
18,2,7,12,SG,pess,def,60%,0,13,8817,13832,1,Try to be fair or even things out.,batch2,3002,live,4,complete,0.46
19,3,0,8,SH,pess,def,40%,1,14,7696,10837,1,Try to be fair or even things out.,batch2,3002,live,4,complete,0.46
20,4,0,5,SH,pess,def,50%,1,15,5051,7168,1,Try to be fair or even things out.,batch2,3002,live,4,complete,0.46
21,5,10,15,SG,pess,coop,50%,1,16,7897,10741,1,Try to be fair or even things out.,batch2,3002,live,4,complete,0.46
22,6,7,5,HG,pess,coop,70%,1,17,5477,8168,1,Try to be fair or even things out.,batch2,3002,live,4,complete,0.46
23,7,0,12,PD,pess,def,70%,1,18,7105,9957,1,Try to be fair or even things out.,batch2,3002,live,4,complete,0.46
24,8,10,8,HG,pess,coop,80%,1,19,4907,7976,1,Try to be fair or even things out.,batch2,3002,live,4,complete,0.46
25,9,3,15,PD,pess,def,80%,1,20,4804,7784,1,Try to be fair or even things out.,batch2,3002,live,4,complete,0.46
26,10,3,8,SH,pess,def,60%,1,21,3929,6851,1,Try to be fair or even things out.,batch2,3002,live,4,complete,0.46
27,11,10,12,SG,pess,def,90%,0,21,4376,7628,1,Try to be fair or even things out.,batch2,3002,live,4,complete,0.46
28,12,3,12,PD,pess,def,60%,1,22,5864,9260,1,Try to be fair or even things out.,batch2,3002,live,4,complete,0.46
29,13,7,15,SG,pess,def,70%,0,22,5549,8417,1,Try to be fair or even things out.,batch2,3002,live,4,complete,0.46
30,14,7,8,HG,pess,coop,60%,1,23,7026,9822,1,Try to be fair or even things out.,batch2,3002,live,4,complete,0.46
31,15,3,5,SH,pess,def,50%,1,24,6824,9405,1,Try to be fair or even things out.,batch2,3002,live,4,complete,0.46
0,0,7,15,SG,opt,def,60%,1,1,4303,10775,0,Chose the options that would pay them the most without consideration of the opponent,batch2,3005,live,4,complete,0.2
1,1,7,5,HG,opt,coop,90%,1,2,4356,6805,0,Chose the options that would pay them the most without consideration of the opponent,batch2,3005,live,4,complete,0.2
2,2,3,8,SH,opt,coop,100%,1,3,4517,7434,0,Chose the options that would pay them the most without consideration of the opponent,batch2,3005,live,4,complete,0.2
3,3,0,12,PD,opt,coop,50%,0,3,5285,10766,0,Chose the options that would pay them the most without consideration of the opponent,batch2,3005,live,4,complete,0.2
4,4,7,8,HG,opt,coop,100%,1,4,3252,5993,0,Chose the options that would pay them the most without consideration of the opponent,batch2,3005,live,4,complete,0.2
5,5,0,8,SH,opt,coop,100%,1,5,3384,6195,0,Chose the options that would pay them the most without consideration of the opponent,batch2,3005,live,4,complete,0.2
6,6,10,15,SG,opt,def,80%,1,6,3858,8165,0,Chose the options that would pay them the most without consideration of the opponent,batch2,3005,live,4,complete,0.2
7,7,0,15,PD,opt,def,80%,1,7,2922,6992,0,Chose the options that would pay them the most without consideration of the opponent,batch2,3005,live,4,complete,0.2
8,8,10,5,HG,opt,coop,100%,1,8,6575,8951,0,Chose the options that would pay them the most without consideration of the opponent,batch2,3005,live,4,complete,0.2
9,9,3,5,SH,opt,coop,100%,1,9,3440,5004,0,Chose the options that would pay them the most without consideration of the opponent,batch2,3005,live,4,complete,0.2
10,10,3,15,PD,opt,def,90%,1,10,2084,5992,0,Chose the options that would pay them the most without consideration of the opponent,batch2,3005,live,4,complete,0.2
11,11,10,12,SG,opt,def,80%,1,11,2743,7666,0,Chose the options that would pay them the most without consideration of the opponent,batch2,3005,live,4,complete,0.2
12,12,0,5,SH,opt,coop,100%,1,12,2000,4166,0,Chose the options that would pay them the most without consideration of the opponent,batch2,3005,live,4,complete,0.2
13,13,3,12,PD,opt,def,90%,1,13,3642,7496,0,Chose the options that would pay them the most without consideration of the opponent,batch2,3005,live,4,complete,0.2
14,14,7,12,SG,opt,def,90%,1,14,2629,4849,0,Chose the options that would pay them the most without consideration of the opponent,batch2,3005,live,4,complete,0.2
15,15,10,8,HG,opt,coop,100%,1,15,2470,5313,0,Chose the options that would pay them the most without consideration of the opponent,batch2,3005,live,4,complete,0.2
16,0,7,12,SG,pess,coop,50%,1,16,4869,11810,1,Entirely random,batch2,3005,live,4,complete,0.2
17,1,7,8,HG,pess,coop,100%,1,17,1860,3861,1,Entirely random,batch2,3005,live,4,complete,0.2
18,2,0,5,SH,pess,coop,100%,0,17,1866,4320,1,Entirely random,batch2,3005,live,4,complete,0.2
19,3,3,15,PD,pess,coop,50%,0,17,5641,9799,1,Entirely random,batch2,3005,live,4,complete,0.2
20,4,0,12,PD,pess,def,70%,1,18,2171,5731,1,Entirely random,batch2,3005,live,4,complete,0.2
21,5,0,8,SH,pess,coop,100%,0,18,2387,3779,1,Entirely random,batch2,3005,live,4,complete,0.2
22,6,10,12,SG,pess,def,90%,0,18,3006,7554,1,Entirely random,batch2,3005,live,4,complete,0.2
23,7,10,5,HG,pess,coop,60%,1,19,3346,6724,1,Entirely random,batch2,3005,live,4,complete,0.2
24,8,10,8,HG,pess,coop,50%,1,20,4922,8404,1,Entirely random,batch2,3005,live,4,complete,0.2
25,9,10,15,SG,pess,def,60%,0,20,3042,9103,1,Entirely random,batch2,3005,live,4,complete,0.2
26,10,3,8,SH,pess,coop,60%,0,20,1910,4801,1,Entirely random,batch2,3005,live,4,complete,0.2
27,11,3,12,PD,pess,coop,50%,0,20,2582,7437,1,Entirely random,batch2,3005,live,4,complete,0.2
28,12,7,15,SG,pess,def,50%,0,20,2245,4758,1,Entirely random,batch2,3005,live,4,complete,0.2
29,13,7,5,HG,pess,def,50%,0,20,1959,4763,1,Entirely random,batch2,3005,live,4,complete,0.2
30,14,3,5,SH,pess,coop,50%,0,20,1521,3614,1,Entirely random,batch2,3005,live,4,complete,0.2
31,15,0,15,PD,pess,coop,50%,0,20,1370,3993,1,Entirely random,batch2,3005,live,4,complete,0.2
0,0,7,5,HG,pess,coop,100%,1,1,7263,10125,0,They was trying to give little as possible to the opponent.,batch2,3008,live,4,complete,0.64
1,1,3,5,SH,pess,coop,100%,0,1,3155,5533,0,They was trying to give little as possible to the opponent.,batch2,3008,live,4,complete,0.64
2,2,7,12,SG,pess,def,80%,0,1,2651,4095,0,They was trying to give little as possible to the opponent.,batch2,3008,live,4,complete,0.64
3,3,3,15,PD,pess,def,70%,1,2,6890,8790,0,They was trying to give little as possible to the opponent.,batch2,3008,live,4,complete,0.64
4,4,0,5,SH,pess,coop,100%,0,2,3837,6269,0,They was trying to give little as possible to the opponent.,batch2,3008,live,4,complete,0.64
5,5,0,15,PD,pess,def,70%,1,3,2513,4085,0,They was trying to give little as possible to the opponent.,batch2,3008,live,4,complete,0.64
6,6,7,15,SG,pess,def,70%,0,3,1836,3180,0,They was trying to give little as possible to the opponent.,batch2,3008,live,4,complete,0.64
7,7,10,8,HG,pess,coop,50%,1,4,5403,8978,0,They was trying to give little as possible to the opponent.,batch2,3008,live,4,complete,0.64
8,8,10,12,SG,pess,coop,50%,1,5,5685,7841,0,They was trying to give little as possible to the opponent.,batch2,3008,live,4,complete,0.64
9,9,3,8,SH,pess,def,50%,1,6,2036,3370,0,They was trying to give little as possible to the opponent.,batch2,3008,live,4,complete,0.64
10,10,10,5,HG,pess,def,50%,0,6,9849,11534,0,They was trying to give little as possible to the opponent.,batch2,3008,live,4,complete,0.64
11,11,3,12,PD,pess,def,60%,1,7,2236,3674,0,They was trying to give little as possible to the opponent.,batch2,3008,live,4,complete,0.64
12,12,10,15,SG,pess,coop,50%,1,8,4062,5672,0,They was trying to give little as possible to the opponent.,batch2,3008,live,4,complete,0.64
13,13,0,12,PD,pess,coop,50%,0,8,6977,8597,0,They was trying to give little as possible to the opponent.,batch2,3008,live,4,complete,0.64
14,14,0,8,SH,pess,coop,50%,0,8,2594,3846,0,They was trying to give little as possible to the opponent.,batch2,3008,live,4,complete,0.64
15,15,7,8,HG,pess,def,70%,0,8,1932,3869,0,They was trying to give little as possible to the opponent.,batch2,3008,live,4,complete,0.64
16,0,0,8,SH,opt,coop,70%,1,9,3969,5503,1,They chose what made them the most.,batch2,3008,live,4,complete,0.64
17,1,7,5,HG,opt,coop,70%,1,10,1972,2892,1,They chose what made them the most.,batch2,3008,live,4,complete,0.64
18,2,10,15,SG,opt,def,50%,1,11,3362,4984,1,They chose what made them the most.,batch2,3008,live,4,complete,0.64
19,3,3,12,PD,opt,def,50%,1,12,2436,3863,1,They chose what made them the most.,batch2,3008,live,4,complete,0.64
20,4,7,15,SG,opt,def,50%,1,13,1454,2716,1,They chose what made them the most.,batch2,3008,live,4,complete,0.64
21,5,7,8,HG,opt,coop,80%,1,14,3014,4178,1,They chose what made them the most.,batch2,3008,live,4,complete,0.64
22,6,3,5,SH,opt,coop,100%,1,15,2460,3574,1,They chose what made them the most.,batch2,3008,live,4,complete,0.64
23,7,3,15,PD,opt,def,100%,1,16,2498,4340,1,They chose what made them the most.,batch2,3008,live,4,complete,0.64
24,8,0,15,PD,opt,def,100%,1,17,1913,3229,1,They chose what made them the most.,batch2,3008,live,4,complete,0.64
25,9,10,8,HG,opt,coop,100%,1,18,6302,7074,1,They chose what made them the most.,batch2,3008,live,4,complete,0.64
26,10,10,12,SG,opt,def,100%,1,19,1748,2765,1,They chose what made them the most.,batch2,3008,live,4,complete,0.64
27,11,0,5,SH,opt,coop,100%,1,20,1815,3237,1,They chose what made them the most.,batch2,3008,live,4,complete,0.64
28,12,0,12,PD,opt,def,100%,1,21,2486,3620,1,They chose what made them the most.,batch2,3008,live,4,complete,0.64
29,13,3,8,SH,opt,coop,100%,1,22,1635,3060,1,They chose what made them the most.,batch2,3008,live,4,complete,0.64
30,14,10,5,HG,opt,coop,100%,1,23,2768,3934,1,They chose what made them the most.,batch2,3008,live,4,complete,0.64
31,15,7,12,SG,opt,def,100%,1,24,2034,3390,1,They chose what made them the most.,batch2,3008,live,4,complete,0.64
0,0,0,12,PD,opt,coop,90%,0,0,3161,4171,0,To maximize thier own gain. ,batch2,3009,live,4,complete,0.19
1,1,0,8,SH,opt,coop,70%,1,1,3029,4829,0,To maximize thier own gain. ,batch2,3009,live,4,complete,0.19
2,2,7,15,SG,opt,def,100%,1,2,1547,2678,0,To maximize thier own gain. ,batch2,3009,live,4,complete,0.19
3,3,7,8,HG,opt,coop,100%,1,3,2553,3851,0,To maximize thier own gain. ,batch2,3009,live,4,complete,0.19
4,4,3,12,PD,opt,def,80%,1,4,2117,2938,0,To maximize thier own gain. ,batch2,3009,live,4,complete,0.19
5,5,0,5,SH,opt,coop,100%,1,5,1624,2552,0,To maximize thier own gain. ,batch2,3009,live,4,complete,0.19
6,6,10,8,HG,opt,coop,90%,1,6,2048,2951,0,To maximize thier own gain. ,batch2,3009,live,4,complete,0.19
7,7,10,15,SG,opt,def,100%,1,7,3610,4509,0,To maximize thier own gain. ,batch2,3009,live,4,complete,0.19
8,8,10,12,SG,opt,def,100%,1,8,2805,3659,0,To maximize thier own gain. ,batch2,3009,live,4,complete,0.19
9,9,0,15,PD,opt,def,100%,1,9,2205,3149,0,To maximize thier own gain. ,batch2,3009,live,4,complete,0.19
10,10,10,5,HG,opt,coop,100%,1,10,3261,4152,0,To maximize thier own gain. ,batch2,3009,live,4,complete,0.19
11,11,3,8,SH,opt,coop,100%,1,11,1346,2418,0,To maximize thier own gain. ,batch2,3009,live,4,complete,0.19
12,12,7,12,SG,opt,def,100%,1,12,2511,3900,0,To maximize thier own gain. ,batch2,3009,live,4,complete,0.19
13,13,3,15,PD,opt,def,90%,1,13,3242,4362,0,To maximize thier own gain. ,batch2,3009,live,4,complete,0.19
14,14,3,5,SH,opt,coop,100%,1,14,1925,2888,0,To maximize thier own gain. ,batch2,3009,live,4,complete,0.19
15,15,7,5,HG,opt,coop,100%,1,15,2264,3668,0,To maximize thier own gain. ,batch2,3009,live,4,complete,0.19
16,0,7,15,SG,pess,coop,90%,1,16,3521,4852,1,"Honestly, i have no idea. There was no rhyme or reason. ",batch2,3009,live,4,complete,0.19
17,1,3,15,PD,pess,coop,90%,0,16,1907,3444,1,"Honestly, i have no idea. There was no rhyme or reason. ",batch2,3009,live,4,complete,0.19
18,2,3,8,SH,pess,coop,100%,0,16,1811,2828,1,"Honestly, i have no idea. There was no rhyme or reason. ",batch2,3009,live,4,complete,0.19
19,3,7,5,HG,pess,coop,70%,1,17,3222,4551,1,"Honestly, i have no idea. There was no rhyme or reason. ",batch2,3009,live,4,complete,0.19
20,4,10,15,SG,pess,def,90%,0,17,1506,2712,1,"Honestly, i have no idea. There was no rhyme or reason. ",batch2,3009,live,4,complete,0.19
21,5,7,8,HG,pess,coop,80%,1,18,1728,2661,1,"Honestly, i have no idea. There was no rhyme or reason. ",batch2,3009,live,4,complete,0.19
22,6,0,5,SH,pess,coop,70%,0,18,1894,2741,1,"Honestly, i have no idea. There was no rhyme or reason. ",batch2,3009,live,4,complete,0.19
23,7,0,12,PD,pess,coop,80%,0,18,2595,3450,1,"Honestly, i have no idea. There was no rhyme or reason. ",batch2,3009,live,4,complete,0.19
24,8,3,12,PD,pess,coop,70%,0,18,3380,4311,1,"Honestly, i have no idea. There was no rhyme or reason. ",batch2,3009,live,4,complete,0.19
25,9,7,12,SG,pess,def,70%,0,18,1303,3197,1,"Honestly, i have no idea. There was no rhyme or reason. ",batch2,3009,live,4,complete,0.19
26,10,10,8,HG,pess,def,80%,0,18,1750,3140,1,"Honestly, i have no idea. There was no rhyme or reason. ",batch2,3009,live,4,complete,0.19
27,11,3,5,SH,pess,def,90%,1,19,2378,2862,1,"Honestly, i have no idea. There was no rhyme or reason. ",batch2,3009,live,4,complete,0.19
28,12,10,12,SG,pess,def,60%,0,19,2524,4240,1,"Honestly, i have no idea. There was no rhyme or reason. ",batch2,3009,live,4,complete,0.19
29,13,0,15,PD,pess,coop,60%,0,19,1967,2935,1,"Honestly, i have no idea. There was no rhyme or reason. ",batch2,3009,live,4,complete,0.19
30,14,10,5,HG,pess,def,60%,0,19,1670,2556,1,"Honestly, i have no idea. There was no rhyme or reason. ",batch2,3009,live,4,complete,0.19
31,15,0,8,SH,pess,coop,70%,0,19,1720,2874,1,"Honestly, i have no idea. There was no rhyme or reason. ",batch2,3009,live,4,complete,0.19
0,0,3,8,SH,opt,coop,70%,1,1,21434,23412,0,choose the highest value for themselvcs,batch2,3011,live,4,complete,0.59
1,1,0,15,PD,opt,def,70%,1,2,1733,3269,0,choose the highest value for themselvcs,batch2,3011,live,4,complete,0.59
2,2,7,8,HG,opt,coop,60%,1,3,1438,3717,0,choose the highest value for themselvcs,batch2,3011,live,4,complete,0.59
3,3,7,15,SG,opt,def,80%,1,4,1306,3986,0,choose the highest value for themselvcs,batch2,3011,live,4,complete,0.59
4,4,3,5,SH,opt,coop,90%,1,5,1563,2652,0,choose the highest value for themselvcs,batch2,3011,live,4,complete,0.59
5,5,7,5,HG,opt,coop,100%,1,6,1486,2518,0,choose the highest value for themselvcs,batch2,3011,live,4,complete,0.59
6,6,0,12,PD,opt,def,100%,1,7,1556,2527,0,choose the highest value for themselvcs,batch2,3011,live,4,complete,0.59
7,7,10,12,SG,opt,def,100%,1,8,1655,2721,0,choose the highest value for themselvcs,batch2,3011,live,4,complete,0.59
8,8,7,12,SG,opt,def,100%,1,9,1236,3617,0,choose the highest value for themselvcs,batch2,3011,live,4,complete,0.59
9,9,3,15,PD,opt,def,100%,1,10,1423,3232,0,choose the highest value for themselvcs,batch2,3011,live,4,complete,0.59
10,10,0,8,SH,opt,coop,100%,1,11,1545,2630,0,choose the highest value for themselvcs,batch2,3011,live,4,complete,0.59
11,11,10,5,HG,opt,coop,100%,1,12,8084,9317,0,choose the highest value for themselvcs,batch2,3011,live,4,complete,0.59
12,12,10,15,SG,opt,def,100%,1,13,2209,3676,0,choose the highest value for themselvcs,batch2,3011,live,4,complete,0.59
13,13,0,5,SH,opt,coop,100%,1,14,1428,3292,0,choose the highest value for themselvcs,batch2,3011,live,4,complete,0.59
14,14,10,8,HG,opt,coop,100%,1,15,1580,3449,0,choose the highest value for themselvcs,batch2,3011,live,4,complete,0.59
15,15,3,12,PD,opt,def,100%,1,16,1994,3592,0,choose the highest value for themselvcs,batch2,3011,live,4,complete,0.59
16,0,10,5,HG,pess,coop,80%,1,17,23398,26382,1,they chose based on the opponents potential earnings,batch2,3011,live,4,complete,0.59
17,1,7,12,SG,pess,coop,70%,1,18,3544,4651,1,they chose based on the opponents potential earnings,batch2,3011,live,4,complete,0.59
18,2,0,12,PD,pess,def,70%,1,19,2697,3761,1,they chose based on the opponents potential earnings,batch2,3011,live,4,complete,0.59
19,3,3,8,SH,pess,coop,80%,0,19,4382,5403,1,they chose based on the opponents potential earnings,batch2,3011,live,4,complete,0.59
20,4,10,12,SG,pess,coop,60%,1,20,5818,6735,1,they chose based on the opponents potential earnings,batch2,3011,live,4,complete,0.59
21,5,0,8,SH,pess,coop,70%,0,20,6662,7974,1,they chose based on the opponents potential earnings,batch2,3011,live,4,complete,0.59
22,6,7,8,HG,pess,coop,60%,1,21,3764,5284,1,they chose based on the opponents potential earnings,batch2,3011,live,4,complete,0.59
23,7,0,15,PD,pess,def,60%,1,22,2289,7172,1,they chose based on the opponents potential earnings,batch2,3011,live,4,complete,0.59
24,8,7,5,HG,pess,coop,80%,1,23,8933,10302,1,they chose based on the opponents potential earnings,batch2,3011,live,4,complete,0.59
25,9,10,15,SG,pess,coop,60%,1,24,3895,6193,1,they chose based on the opponents potential earnings,batch2,3011,live,4,complete,0.59
26,10,3,5,SH,pess,coop,70%,0,24,2755,4296,1,they chose based on the opponents potential earnings,batch2,3011,live,4,complete,0.59
27,11,3,15,PD,pess,def,70%,1,25,3759,5510,1,they chose based on the opponents potential earnings,batch2,3011,live,4,complete,0.59
28,12,3,12,PD,pess,def,80%,1,26,6376,7625,1,they chose based on the opponents potential earnings,batch2,3011,live,4,complete,0.59
29,13,0,5,SH,pess,def,60%,1,27,4345,5841,1,they chose based on the opponents potential earnings,batch2,3011,live,4,complete,0.59
30,14,7,15,SG,pess,coop,60%,1,28,3193,4339,1,they chose based on the opponents potential earnings,batch2,3011,live,4,complete,0.59
31,15,10,8,HG,pess,coop,60%,1,29,1913,3336,1,they chose based on the opponents potential earnings,batch2,3011,live,4,complete,0.59
0,0,0,8,SH,opt,def,80%,0,0,16004,19788,0,To try to make the most money possible.,batch2,3013,live,4,complete,0.28
1,1,3,15,PD,opt,def,60%,1,1,8261,10869,0,To try to make the most money possible.,batch2,3013,live,4,complete,0.28
2,2,10,12,SG,opt,coop,50%,0,1,11332,14051,0,To try to make the most money possible.,batch2,3013,live,4,complete,0.28
3,3,7,8,HG,opt,coop,70%,1,2,4875,6435,0,To try to make the most money possible.,batch2,3013,live,4,complete,0.28
4,4,10,8,HG,opt,coop,80%,1,3,5643,7603,0,To try to make the most money possible.,batch2,3013,live,4,complete,0.28
5,5,0,15,PD,opt,def,70%,1,4,4075,6539,0,To try to make the most money possible.,batch2,3013,live,4,complete,0.28
6,6,3,8,SH,opt,coop,80%,1,5,4172,5980,0,To try to make the most money possible.,batch2,3013,live,4,complete,0.28
7,7,7,15,SG,opt,def,70%,1,6,3092,4820,0,To try to make the most money possible.,batch2,3013,live,4,complete,0.28
8,8,0,12,PD,opt,def,90%,1,7,4179,5907,0,To try to make the most money possible.,batch2,3013,live,4,complete,0.28
9,9,3,5,SH,opt,coop,90%,1,8,6676,9380,0,To try to make the most money possible.,batch2,3013,live,4,complete,0.28
10,10,7,12,SG,opt,def,90%,1,9,5787,10163,0,To try to make the most money possible.,batch2,3013,live,4,complete,0.28
11,11,10,5,HG,opt,coop,100%,1,10,5010,7154,0,To try to make the most money possible.,batch2,3013,live,4,complete,0.28
12,12,0,5,SH,opt,coop,80%,1,11,6611,8619,0,To try to make the most money possible.,batch2,3013,live,4,complete,0.28
13,13,7,5,HG,opt,coop,100%,1,12,3795,5635,0,To try to make the most money possible.,batch2,3013,live,4,complete,0.28
14,14,3,12,PD,opt,def,90%,1,13,2893,4517,0,To try to make the most money possible.,batch2,3013,live,4,complete,0.28
15,15,10,15,SG,opt,def,90%,1,14,2979,4980,0,To try to make the most money possible.,batch2,3013,live,4,complete,0.28
16,0,10,8,HG,pess,coop,90%,1,15,10616,13328,1,To try to make money each round but be fair also.,batch2,3013,live,4,complete,0.28
17,1,3,5,SH,pess,coop,80%,0,15,7474,9633,1,To try to make money each round but be fair also.,batch2,3013,live,4,complete,0.28
18,2,7,12,SG,pess,coop,60%,1,16,9091,10923,1,To try to make money each round but be fair also.,batch2,3013,live,4,complete,0.28
19,3,3,12,PD,pess,def,60%,1,17,6995,9323,1,To try to make money each round but be fair also.,batch2,3013,live,4,complete,0.28
20,4,7,5,HG,pess,coop,90%,1,18,5300,7764,1,To try to make money each round but be fair also.,batch2,3013,live,4,complete,0.28
21,5,10,15,SG,pess,coop,80%,1,19,6291,8155,1,To try to make money each round but be fair also.,batch2,3013,live,4,complete,0.28
22,6,0,12,PD,pess,def,80%,1,20,5463,7231,1,To try to make money each round but be fair also.,batch2,3013,live,4,complete,0.28
23,7,0,5,SH,pess,def,70%,1,21,4020,6172,1,To try to make money each round but be fair also.,batch2,3013,live,4,complete,0.28
24,8,10,5,HG,pess,coop,100%,1,22,4267,6099,1,To try to make money each round but be fair also.,batch2,3013,live,4,complete,0.28
25,9,3,8,SH,pess,def,80%,1,23,7235,8931,1,To try to make money each round but be fair also.,batch2,3013,live,4,complete,0.28
26,10,7,15,SG,pess,def,70%,0,23,5531,7114,1,To try to make money each round but be fair also.,batch2,3013,live,4,complete,0.28
27,11,3,15,PD,pess,def,90%,1,24,3835,5611,1,To try to make money each round but be fair also.,batch2,3013,live,4,complete,0.28
28,12,0,15,PD,pess,def,100%,1,25,3499,5379,1,To try to make money each round but be fair also.,batch2,3013,live,4,complete,0.28
29,13,0,8,SH,pess,def,80%,1,26,3247,6639,1,To try to make money each round but be fair also.,batch2,3013,live,4,complete,0.28
30,14,10,12,SG,pess,coop,90%,1,27,3602,6018,1,To try to make money each round but be fair also.,batch2,3013,live,4,complete,0.28
31,15,7,8,HG,pess,coop,100%,1,28,2995,4611,1,To try to make money each round but be fair also.,batch2,3013,live,4,complete,0.28
0,0,7,15,SG,pess,def,50%,0,0,5533,7059,0,They seemed to choose at random. Some of the decisions made no sense.,batch2,3014,live,4,complete,0.45
1,1,7,5,HG,pess,coop,90%,1,1,1874,2700,0,They seemed to choose at random. Some of the decisions made no sense.,batch2,3014,live,4,complete,0.45
2,2,3,8,SH,pess,coop,80%,0,1,1533,2298,0,They seemed to choose at random. Some of the decisions made no sense.,batch2,3014,live,4,complete,0.45
3,3,0,12,PD,pess,coop,80%,0,1,3471,4643,0,They seemed to choose at random. Some of the decisions made no sense.,batch2,3014,live,4,complete,0.45
4,4,7,8,HG,pess,coop,90%,1,2,3590,4361,0,They seemed to choose at random. Some of the decisions made no sense.,batch2,3014,live,4,complete,0.45
5,5,0,8,SH,pess,coop,90%,0,2,2544,3387,0,They seemed to choose at random. Some of the decisions made no sense.,batch2,3014,live,4,complete,0.45
6,6,10,15,SG,pess,def,80%,0,2,3639,4329,0,They seemed to choose at random. Some of the decisions made no sense.,batch2,3014,live,4,complete,0.45
7,7,0,15,PD,pess,def,80%,1,3,1833,3006,0,They seemed to choose at random. Some of the decisions made no sense.,batch2,3014,live,4,complete,0.45
8,8,10,5,HG,pess,coop,60%,1,4,3272,3946,0,They seemed to choose at random. Some of the decisions made no sense.,batch2,3014,live,4,complete,0.45
9,9,3,5,SH,pess,coop,60%,0,4,1633,2531,0,They seemed to choose at random. Some of the decisions made no sense.,batch2,3014,live,4,complete,0.45
10,10,3,15,PD,pess,def,80%,1,5,4296,5184,0,They seemed to choose at random. Some of the decisions made no sense.,batch2,3014,live,4,complete,0.45
11,11,10,12,SG,pess,def,50%,0,5,3010,6144,0,They seemed to choose at random. Some of the decisions made no sense.,batch2,3014,live,4,complete,0.45
12,12,0,5,SH,pess,coop,60%,0,5,3351,4098,0,They seemed to choose at random. Some of the decisions made no sense.,batch2,3014,live,4,complete,0.45
13,13,3,12,PD,pess,def,60%,1,6,1592,3233,0,They seemed to choose at random. Some of the decisions made no sense.,batch2,3014,live,4,complete,0.45
14,14,7,12,SG,pess,def,50%,0,6,1751,2433,0,They seemed to choose at random. Some of the decisions made no sense.,batch2,3014,live,4,complete,0.45
15,15,10,8,HG,pess,coop,50%,1,7,1889,3031,0,They seemed to choose at random. Some of the decisions made no sense.,batch2,3014,live,4,complete,0.45
16,0,10,5,HG,opt,coop,60%,1,8,4934,6039,1,They went for whatever option made them the most money.,batch2,3014,live,4,complete,0.45
17,1,0,15,PD,opt,def,50%,1,9,2854,4134,1,They went for whatever option made them the most money.,batch2,3014,live,4,complete,0.45
18,2,7,12,SG,opt,def,50%,1,10,2947,3860,1,They went for whatever option made them the most money.,batch2,3014,live,4,complete,0.45
19,3,0,8,SH,opt,coop,60%,1,11,1519,2427,1,They went for whatever option made them the most money.,batch2,3014,live,4,complete,0.45
20,4,0,5,SH,opt,coop,50%,1,12,1716,2780,1,They went for whatever option made them the most money.,batch2,3014,live,4,complete,0.45
21,5,10,15,SG,opt,def,50%,1,13,3912,4598,1,They went for whatever option made them the most money.,batch2,3014,live,4,complete,0.45
22,6,7,5,HG,opt,coop,60%,1,14,1429,2228,1,They went for whatever option made them the most money.,batch2,3014,live,4,complete,0.45
23,7,0,12,PD,opt,def,60%,1,15,1604,2961,1,They went for whatever option made them the most money.,batch2,3014,live,4,complete,0.45
24,8,10,8,HG,opt,coop,60%,1,16,1872,2847,1,They went for whatever option made them the most money.,batch2,3014,live,4,complete,0.45
25,9,3,15,PD,opt,def,50%,1,17,1569,2242,1,They went for whatever option made them the most money.,batch2,3014,live,4,complete,0.45
26,10,3,8,SH,opt,coop,50%,1,18,1677,2317,1,They went for whatever option made them the most money.,batch2,3014,live,4,complete,0.45
27,11,10,12,SG,opt,def,60%,1,19,1652,2315,1,They went for whatever option made them the most money.,batch2,3014,live,4,complete,0.45
28,12,3,12,PD,opt,def,70%,1,20,1505,3246,1,They went for whatever option made them the most money.,batch2,3014,live,4,complete,0.45
29,13,7,15,SG,opt,def,70%,1,21,1474,2141,1,They went for whatever option made them the most money.,batch2,3014,live,4,complete,0.45
30,14,7,8,HG,opt,coop,60%,1,22,1700,2411,1,They went for whatever option made them the most money.,batch2,3014,live,4,complete,0.45
31,15,3,5,SH,opt,coop,60%,1,23,1218,2575,1,They went for whatever option made them the most money.,batch2,3014,live,4,complete,0.45
0,0,0,12,PD,opt,coop,100%,0,0,8188,9876,0,To make the most money possible.,batch2,3015,live,4,complete,0.21
1,1,7,5,HG,opt,coop,70%,1,1,4923,6221,0,To make the most money possible.,batch2,3015,live,4,complete,0.21
2,2,10,12,SG,opt,def,80%,1,2,4771,8838,0,To make the most money possible.,batch2,3015,live,4,complete,0.21
3,3,3,5,SH,opt,coop,70%,1,3,3937,5777,0,To make the most money possible.,batch2,3015,live,4,complete,0.21
4,4,0,8,SH,opt,coop,80%,1,4,3959,5811,0,To make the most money possible.,batch2,3015,live,4,complete,0.21
5,5,0,15,PD,opt,coop,70%,0,4,3137,5002,0,To make the most money possible.,batch2,3015,live,4,complete,0.21
6,6,10,5,HG,opt,coop,50%,1,5,7824,10491,0,To make the most money possible.,batch2,3015,live,4,complete,0.21
7,7,7,12,SG,opt,coop,70%,0,5,2475,4077,0,To make the most money possible.,batch2,3015,live,4,complete,0.21
8,8,3,15,PD,opt,def,80%,1,6,2386,6775,0,To make the most money possible.,batch2,3015,live,4,complete,0.21
9,9,10,15,SG,opt,def,80%,1,7,1924,5670,0,To make the most money possible.,batch2,3015,live,4,complete,0.21
10,10,7,8,HG,opt,coop,70%,1,8,3405,5184,0,To make the most money possible.,batch2,3015,live,4,complete,0.21
11,11,0,5,SH,opt,coop,80%,1,9,2378,3981,0,To make the most money possible.,batch2,3015,live,4,complete,0.21
12,12,10,8,HG,opt,coop,80%,1,10,4237,5946,0,To make the most money possible.,batch2,3015,live,4,complete,0.21
13,13,7,15,SG,opt,def,90%,1,11,1846,3680,0,To make the most money possible.,batch2,3015,live,4,complete,0.21
14,14,3,8,SH,opt,coop,80%,1,12,2554,5097,0,To make the most money possible.,batch2,3015,live,4,complete,0.21
15,15,3,12,PD,opt,def,80%,1,13,1841,3695,0,To make the most money possible.,batch2,3015,live,4,complete,0.21
16,0,3,12,PD,pess,def,80%,1,14,4316,6442,1,To make the most possible.,batch2,3015,live,4,complete,0.21
17,1,7,8,HG,pess,coop,80%,1,15,3831,5295,1,To make the most possible.,batch2,3015,live,4,complete,0.21
18,2,3,8,SH,pess,coop,80%,0,15,2155,3973,1,To make the most possible.,batch2,3015,live,4,complete,0.21
19,3,7,12,SG,pess,def,90%,0,15,2487,3637,1,To make the most possible.,batch2,3015,live,4,complete,0.21
20,4,0,15,PD,pess,def,80%,1,16,1928,4822,1,To make the most possible.,batch2,3015,live,4,complete,0.21
21,5,0,8,SH,pess,coop,80%,0,16,3022,4363,1,To make the most possible.,batch2,3015,live,4,complete,0.21
22,6,7,15,SG,pess,def,90%,0,16,2686,4220,1,To make the most possible.,batch2,3015,live,4,complete,0.21
23,7,7,5,HG,pess,coop,80%,1,17,2839,4377,1,To make the most possible.,batch2,3015,live,4,complete,0.21
24,8,3,15,PD,pess,def,80%,1,18,1674,3096,1,To make the most possible.,batch2,3015,live,4,complete,0.21
25,9,0,5,SH,pess,coop,80%,0,18,1986,3613,1,To make the most possible.,batch2,3015,live,4,complete,0.21
26,10,10,5,HG,pess,coop,90%,1,19,1745,3159,1,To make the most possible.,batch2,3015,live,4,complete,0.21
27,11,10,15,SG,pess,def,90%,0,19,1810,3054,1,To make the most possible.,batch2,3015,live,4,complete,0.21
28,12,10,12,SG,pess,def,90%,0,19,1448,2906,1,To make the most possible.,batch2,3015,live,4,complete,0.21
29,13,0,12,PD,pess,def,80%,1,20,2003,3318,1,To make the most possible.,batch2,3015,live,4,complete,0.21
30,14,3,5,SH,pess,coop,80%,0,20,1578,4539,1,To make the most possible.,batch2,3015,live,4,complete,0.21
31,15,10,8,HG,pess,coop,80%,1,21,1612,3278,1,To make the most possible.,batch2,3015,live,4,complete,0.21
0,0,7,15,SG,opt,def,60%,1,1,9120,11557,0,SCORE AS MANY POINTS AS POSSIBLE,batch2,3018,live,4,complete,0.24
1,1,7,5,HG,opt,coop,60%,1,2,4735,7647,0,SCORE AS MANY POINTS AS POSSIBLE,batch2,3018,live,4,complete,0.24
2,2,3,8,SH,opt,coop,50%,1,3,2767,4373,0,SCORE AS MANY POINTS AS POSSIBLE,batch2,3018,live,4,complete,0.24
3,3,0,12,PD,opt,def,70%,1,4,2848,4504,0,SCORE AS MANY POINTS AS POSSIBLE,batch2,3018,live,4,complete,0.24
4,4,7,8,HG,opt,coop,60%,1,5,2786,4646,0,SCORE AS MANY POINTS AS POSSIBLE,batch2,3018,live,4,complete,0.24
5,5,0,8,SH,opt,coop,60%,1,6,3753,5672,0,SCORE AS MANY POINTS AS POSSIBLE,batch2,3018,live,4,complete,0.24
6,6,10,15,SG,opt,def,60%,1,7,3216,5173,0,SCORE AS MANY POINTS AS POSSIBLE,batch2,3018,live,4,complete,0.24
7,7,0,15,PD,opt,def,60%,1,8,2651,4103,0,SCORE AS MANY POINTS AS POSSIBLE,batch2,3018,live,4,complete,0.24
8,8,10,5,HG,opt,coop,50%,1,9,2828,4630,0,SCORE AS MANY POINTS AS POSSIBLE,batch2,3018,live,4,complete,0.24
9,9,3,5,SH,opt,coop,50%,1,10,2796,5017,0,SCORE AS MANY POINTS AS POSSIBLE,batch2,3018,live,4,complete,0.24
10,10,3,15,PD,opt,def,60%,1,11,3090,5068,0,SCORE AS MANY POINTS AS POSSIBLE,batch2,3018,live,4,complete,0.24
11,11,10,12,SG,opt,def,70%,1,12,2457,4095,0,SCORE AS MANY POINTS AS POSSIBLE,batch2,3018,live,4,complete,0.24
12,12,0,5,SH,opt,coop,80%,1,13,2514,4686,0,SCORE AS MANY POINTS AS POSSIBLE,batch2,3018,live,4,complete,0.24
13,13,3,12,PD,opt,def,60%,1,14,2796,4579,0,SCORE AS MANY POINTS AS POSSIBLE,batch2,3018,live,4,complete,0.24
14,14,7,12,SG,opt,def,70%,1,15,2417,4423,0,SCORE AS MANY POINTS AS POSSIBLE,batch2,3018,live,4,complete,0.24
15,15,10,8,HG,opt,coop,60%,1,16,3257,4999,0,SCORE AS MANY POINTS AS POSSIBLE,batch2,3018,live,4,complete,0.24
16,0,10,8,HG,pess,coop,70%,1,17,3849,5904,1,GET AS MANY POINTS AS POSSIBLE,batch2,3018,live,4,complete,0.24
17,1,3,5,SH,pess,coop,70%,0,17,2769,4727,1,GET AS MANY POINTS AS POSSIBLE,batch2,3018,live,4,complete,0.24
18,2,7,12,SG,pess,def,70%,0,17,2944,4687,1,GET AS MANY POINTS AS POSSIBLE,batch2,3018,live,4,complete,0.24
19,3,3,12,PD,pess,def,60%,1,18,2546,4611,1,GET AS MANY POINTS AS POSSIBLE,batch2,3018,live,4,complete,0.24
20,4,7,5,HG,pess,coop,60%,1,19,3374,6023,1,GET AS MANY POINTS AS POSSIBLE,batch2,3018,live,4,complete,0.24
21,5,10,15,SG,pess,def,60%,0,19,2330,4493,1,GET AS MANY POINTS AS POSSIBLE,batch2,3018,live,4,complete,0.24
22,6,0,12,PD,pess,def,70%,1,20,2242,3781,1,GET AS MANY POINTS AS POSSIBLE,batch2,3018,live,4,complete,0.24
23,7,0,5,SH,pess,coop,60%,0,20,2488,4457,1,GET AS MANY POINTS AS POSSIBLE,batch2,3018,live,4,complete,0.24
24,8,10,5,HG,pess,coop,60%,1,21,2252,3966,1,GET AS MANY POINTS AS POSSIBLE,batch2,3018,live,4,complete,0.24
25,9,3,8,SH,pess,coop,60%,0,21,2225,4005,1,GET AS MANY POINTS AS POSSIBLE,batch2,3018,live,4,complete,0.24
26,10,7,15,SG,pess,def,70%,0,21,2232,4081,1,GET AS MANY POINTS AS POSSIBLE,batch2,3018,live,4,complete,0.24
27,11,3,15,PD,pess,def,60%,1,22,2594,4368,1,GET AS MANY POINTS AS POSSIBLE,batch2,3018,live,4,complete,0.24
28,12,0,15,PD,pess,def,70%,1,23,3605,5340,1,GET AS MANY POINTS AS POSSIBLE,batch2,3018,live,4,complete,0.24
29,13,0,8,SH,pess,coop,70%,0,23,2134,4094,1,GET AS MANY POINTS AS POSSIBLE,batch2,3018,live,4,complete,0.24
30,14,10,12,SG,pess,def,60%,0,23,2777,4160,1,GET AS MANY POINTS AS POSSIBLE,batch2,3018,live,4,complete,0.24
31,15,7,8,HG,pess,coop,60%,1,24,2008,4220,1,GET AS MANY POINTS AS POSSIBLE,batch2,3018,live,4,complete,0.24
0,0,3,5,SH,opt,coop,100%,1,1,3030,6731,0,Pick the highest possibility always.,batch2,3022,live,4,complete,0.24
1,1,0,15,PD,opt,coop,80%,0,1,3636,5805,0,Pick the highest possibility always.,batch2,3022,live,4,complete,0.24
2,2,7,8,HG,opt,coop,100%,1,2,8036,9518,0,Pick the highest possibility always.,batch2,3022,live,4,complete,0.24
3,3,10,12,SG,opt,def,60%,1,3,2042,3503,0,Pick the highest possibility always.,batch2,3022,live,4,complete,0.24
4,4,7,12,SG,opt,def,90%,1,4,2129,3423,0,Pick the highest possibility always.,batch2,3022,live,4,complete,0.24
5,5,10,8,HG,opt,coop,100%,1,5,3456,5817,0,Pick the highest possibility always.,batch2,3022,live,4,complete,0.24
6,6,0,5,SH,opt,coop,100%,1,6,2088,3518,0,Pick the highest possibility always.,batch2,3022,live,4,complete,0.24
7,7,0,12,PD,opt,def,100%,1,7,2034,3786,0,Pick the highest possibility always.,batch2,3022,live,4,complete,0.24
8,8,7,5,HG,opt,coop,100%,1,8,2016,3548,0,Pick the highest possibility always.,batch2,3022,live,4,complete,0.24
9,9,3,8,SH,opt,coop,100%,1,9,1930,3859,0,Pick the highest possibility always.,batch2,3022,live,4,complete,0.24
10,10,3,12,PD,opt,def,100%,1,10,2439,3923,0,Pick the highest possibility always.,batch2,3022,live,4,complete,0.24
11,11,7,15,SG,opt,def,100%,1,11,2782,4314,0,Pick the highest possibility always.,batch2,3022,live,4,complete,0.24
12,12,3,15,PD,opt,def,100%,1,12,1517,2803,0,Pick the highest possibility always.,batch2,3022,live,4,complete,0.24
13,13,10,5,HG,opt,coop,100%,1,13,1785,3197,0,Pick the highest possibility always.,batch2,3022,live,4,complete,0.24
14,14,10,15,SG,opt,def,100%,1,14,1395,2662,0,Pick the highest possibility always.,batch2,3022,live,4,complete,0.24
15,15,0,8,SH,opt,coop,100%,1,15,1245,2421,0,Pick the highest possibility always.,batch2,3022,live,4,complete,0.24
16,0,7,15,SG,pess,coop,60%,1,16,3598,6601,1,They alternated every round.,batch2,3022,live,4,complete,0.24
17,1,3,15,PD,pess,coop,70%,0,16,1675,3217,1,They alternated every round.,batch2,3022,live,4,complete,0.24
18,2,3,8,SH,pess,coop,100%,0,16,2899,3727,1,They alternated every round.,batch2,3022,live,4,complete,0.24
19,3,7,5,HG,pess,def,50%,0,16,1705,3444,1,They alternated every round.,batch2,3022,live,4,complete,0.24
20,4,10,15,SG,pess,def,70%,0,16,1844,3104,1,They alternated every round.,batch2,3022,live,4,complete,0.24
21,5,7,8,HG,pess,coop,60%,1,17,1899,3120,1,They alternated every round.,batch2,3022,live,4,complete,0.24
22,6,0,5,SH,pess,coop,70%,0,17,1493,2494,1,They alternated every round.,batch2,3022,live,4,complete,0.24
23,7,0,12,PD,pess,coop,70%,0,17,1646,3029,1,They alternated every round.,batch2,3022,live,4,complete,0.24
24,8,3,12,PD,pess,def,60%,1,18,1774,2758,1,They alternated every round.,batch2,3022,live,4,complete,0.24
25,9,7,12,SG,pess,def,80%,0,18,1210,2266,1,They alternated every round.,batch2,3022,live,4,complete,0.24
26,10,10,8,HG,pess,coop,60%,1,19,1529,2908,1,They alternated every round.,batch2,3022,live,4,complete,0.24
27,11,3,5,SH,pess,def,60%,1,20,1215,2311,1,They alternated every round.,batch2,3022,live,4,complete,0.24
28,12,10,12,SG,pess,coop,80%,1,21,1257,2233,1,They alternated every round.,batch2,3022,live,4,complete,0.24
29,13,0,15,PD,pess,def,80%,1,22,1291,2613,1,They alternated every round.,batch2,3022,live,4,complete,0.24
30,14,10,5,HG,pess,coop,90%,1,23,1257,2467,1,They alternated every round.,batch2,3022,live,4,complete,0.24
31,15,0,8,SH,pess,def,100%,1,24,1589,2645,1,They alternated every round.,batch2,3022,live,4,complete,0.24
0,0,7,15,SG,pess,def,50%,0,0,3100,4525,0,I have no idea,batch2,3023,live,4,complete,0.22
1,1,7,5,HG,pess,coop,100%,1,1,2846,4710,0,I have no idea,batch2,3023,live,4,complete,0.22
2,2,3,8,SH,pess,coop,100%,0,1,2191,3600,0,I have no idea,batch2,3023,live,4,complete,0.22
3,3,0,12,PD,pess,def,60%,1,2,4423,5767,0,I have no idea,batch2,3023,live,4,complete,0.22
4,4,7,8,HG,pess,coop,80%,1,3,3488,5296,0,I have no idea,batch2,3023,live,4,complete,0.22
5,5,0,8,SH,pess,coop,80%,0,3,2728,5374,0,I have no idea,batch2,3023,live,4,complete,0.22
6,6,10,15,SG,pess,def,50%,0,3,2610,4532,0,I have no idea,batch2,3023,live,4,complete,0.22
7,7,0,15,PD,pess,def,50%,1,4,2934,4966,0,I have no idea,batch2,3023,live,4,complete,0.22
8,8,10,5,HG,pess,coop,50%,1,5,2969,4928,0,I have no idea,batch2,3023,live,4,complete,0.22
9,9,3,5,SH,pess,coop,80%,0,5,1487,3792,0,I have no idea,batch2,3023,live,4,complete,0.22
10,10,3,15,PD,pess,def,70%,1,6,2472,4207,0,I have no idea,batch2,3023,live,4,complete,0.22
11,11,10,12,SG,pess,def,50%,0,6,2104,3496,0,I have no idea,batch2,3023,live,4,complete,0.22
12,12,0,5,SH,pess,coop,50%,0,6,2311,4304,0,I have no idea,batch2,3023,live,4,complete,0.22
13,13,3,12,PD,pess,def,50%,1,7,2801,4121,0,I have no idea,batch2,3023,live,4,complete,0.22
14,14,7,12,SG,pess,def,70%,0,7,1463,3551,0,I have no idea,batch2,3023,live,4,complete,0.22
15,15,10,8,HG,pess,def,50%,0,7,6250,8562,0,I have no idea,batch2,3023,live,4,complete,0.22
16,0,0,12,PD,opt,coop,50%,0,7,4199,5576,1,Maximizing their own earnings,batch2,3023,live,4,complete,0.22
17,1,0,8,SH,opt,coop,50%,1,8,2422,3854,1,Maximizing their own earnings,batch2,3023,live,4,complete,0.22
18,2,7,15,SG,opt,def,60%,1,9,1752,3288,1,Maximizing their own earnings,batch2,3023,live,4,complete,0.22
19,3,7,8,HG,opt,coop,50%,1,10,1928,4160,1,Maximizing their own earnings,batch2,3023,live,4,complete,0.22
20,4,3,12,PD,opt,def,50%,1,11,1696,3055,1,Maximizing their own earnings,batch2,3023,live,4,complete,0.22
21,5,0,5,SH,opt,coop,70%,1,12,2000,4242,1,Maximizing their own earnings,batch2,3023,live,4,complete,0.22
22,6,10,8,HG,opt,coop,60%,1,13,2286,4951,1,Maximizing their own earnings,batch2,3023,live,4,complete,0.22
23,7,10,15,SG,opt,def,100%,1,14,1512,4833,1,Maximizing their own earnings,batch2,3023,live,4,complete,0.22
24,8,10,12,SG,opt,def,100%,1,15,1592,3152,1,Maximizing their own earnings,batch2,3023,live,4,complete,0.22
25,9,0,15,PD,opt,def,60%,1,16,1384,3096,1,Maximizing their own earnings,batch2,3023,live,4,complete,0.22
26,10,10,5,HG,opt,coop,70%,1,17,3255,6118,1,Maximizing their own earnings,batch2,3023,live,4,complete,0.22
27,11,3,8,SH,opt,coop,70%,1,18,1913,3304,1,Maximizing their own earnings,batch2,3023,live,4,complete,0.22
28,12,7,12,SG,opt,def,70%,1,19,1487,3016,1,Maximizing their own earnings,batch2,3023,live,4,complete,0.22
29,13,3,15,PD,opt,def,80%,1,20,1807,3509,1,Maximizing their own earnings,batch2,3023,live,4,complete,0.22
30,14,3,5,SH,opt,coop,80%,1,21,1443,2955,1,Maximizing their own earnings,batch2,3023,live,4,complete,0.22
31,15,7,5,HG,opt,coop,80%,1,22,1471,3103,1,Maximizing their own earnings,batch2,3023,live,4,complete,0.22
0,0,10,8,HG,pess,coop,100%,1,1,12483,17403,0,Im not sure. Sometimes they shared fairly and other times they actually took less points.,batch2,3024,live,4,complete,0.65
1,1,7,12,SG,pess,coop,100%,1,2,7145,10057,0,Im not sure. Sometimes they shared fairly and other times they actually took less points.,batch2,3024,live,4,complete,0.65
2,2,0,12,PD,pess,coop,100%,0,2,4073,6689,0,Im not sure. Sometimes they shared fairly and other times they actually took less points.,batch2,3024,live,4,complete,0.65
3,3,0,8,SH,pess,coop,100%,0,2,5266,8066,0,Im not sure. Sometimes they shared fairly and other times they actually took less points.,batch2,3024,live,4,complete,0.65
4,4,3,8,SH,pess,coop,100%,0,2,2154,4482,0,Im not sure. Sometimes they shared fairly and other times they actually took less points.,batch2,3024,live,4,complete,0.65
5,5,3,15,PD,pess,def,100%,1,3,3019,5411,0,Im not sure. Sometimes they shared fairly and other times they actually took less points.,batch2,3024,live,4,complete,0.65
6,6,10,15,SG,pess,def,100%,0,3,4578,6786,0,Im not sure. Sometimes they shared fairly and other times they actually took less points.,batch2,3024,live,4,complete,0.65
7,7,10,5,HG,pess,coop,100%,1,4,2762,5514,0,Im not sure. Sometimes they shared fairly and other times they actually took less points.,batch2,3024,live,4,complete,0.65
8,8,3,12,PD,pess,def,100%,1,5,4091,5067,0,Im not sure. Sometimes they shared fairly and other times they actually took less points.,batch2,3024,live,4,complete,0.65
9,9,7,8,HG,pess,coop,100%,1,6,2786,5195,0,Im not sure. Sometimes they shared fairly and other times they actually took less points.,batch2,3024,live,4,complete,0.65
10,10,10,12,SG,pess,def,100%,0,6,2890,5578,0,Im not sure. Sometimes they shared fairly and other times they actually took less points.,batch2,3024,live,4,complete,0.65
11,11,0,5,SH,pess,coop,100%,0,6,3274,4395,0,Im not sure. Sometimes they shared fairly and other times they actually took less points.,batch2,3024,live,4,complete,0.65
12,12,0,15,PD,pess,def,100%,1,7,5616,7224,0,Im not sure. Sometimes they shared fairly and other times they actually took less points.,batch2,3024,live,4,complete,0.65
13,13,7,15,SG,pess,coop,80%,1,8,2443,4771,0,Im not sure. Sometimes they shared fairly and other times they actually took less points.,batch2,3024,live,4,complete,0.65
14,14,7,5,HG,pess,coop,100%,1,9,2891,3939,0,Im not sure. Sometimes they shared fairly and other times they actually took less points.,batch2,3024,live,4,complete,0.65
15,15,3,5,SH,pess,coop,100%,0,9,9722,16146,0,Im not sure. Sometimes they shared fairly and other times they actually took less points.,batch2,3024,live,4,complete,0.65
16,0,7,15,SG,opt,def,100%,1,10,99925,102269,1,to always go for the most points for him/herself,batch2,3024,live,4,complete,0.65
17,1,3,15,PD,opt,def,100%,1,11,3290,5642,1,to always go for the most points for him/herself,batch2,3024,live,4,complete,0.65
18,2,3,8,SH,opt,coop,100%,1,12,4851,8218,1,to always go for the most points for him/herself,batch2,3024,live,4,complete,0.65
19,3,7,5,HG,opt,coop,100%,1,13,3363,5267,1,to always go for the most points for him/herself,batch2,3024,live,4,complete,0.65
20,4,10,15,SG,opt,def,100%,1,14,5963,7787,1,to always go for the most points for him/herself,batch2,3024,live,4,complete,0.65
21,5,7,8,HG,opt,coop,100%,1,15,3514,4514,1,to always go for the most points for him/herself,batch2,3024,live,4,complete,0.65
22,6,0,5,SH,opt,coop,100%,1,16,3467,4404,1,to always go for the most points for him/herself,batch2,3024,live,4,complete,0.65
23,7,0,12,PD,opt,def,100%,1,17,3519,4447,1,to always go for the most points for him/herself,batch2,3024,live,4,complete,0.65
24,8,3,12,PD,opt,def,100%,1,18,3401,4425,1,to always go for the most points for him/herself,batch2,3024,live,4,complete,0.65
25,9,7,12,SG,opt,def,100%,1,19,3275,4507,1,to always go for the most points for him/herself,batch2,3024,live,4,complete,0.65
26,10,10,8,HG,opt,coop,100%,1,20,3304,4112,1,to always go for the most points for him/herself,batch2,3024,live,4,complete,0.65
27,11,3,5,SH,opt,coop,100%,1,21,3347,4187,1,to always go for the most points for him/herself,batch2,3024,live,4,complete,0.65
28,12,10,12,SG,opt,def,100%,1,22,3498,4442,1,to always go for the most points for him/herself,batch2,3024,live,4,complete,0.65
29,13,0,15,PD,opt,def,100%,1,23,4155,5123,1,to always go for the most points for him/herself,batch2,3024,live,4,complete,0.65
30,14,10,5,HG,opt,coop,100%,1,24,4537,5977,1,to always go for the most points for him/herself,batch2,3024,live,4,complete,0.65
31,15,0,8,SH,opt,coop,100%,1,25,3930,4962,1,to always go for the most points for him/herself,batch2,3024,live,4,complete,0.65
0,0,7,12,SG,opt,def,80%,1,1,7248,8736,0,He chose based on the decision that will maximize his/her profits.,batch2,3025,live,4,complete,0.64
1,1,7,8,HG,opt,coop,80%,1,2,4756,6043,0,He chose based on the decision that will maximize his/her profits.,batch2,3025,live,4,complete,0.64
2,2,0,5,SH,opt,def,90%,0,2,5484,7020,0,He chose based on the decision that will maximize his/her profits.,batch2,3025,live,4,complete,0.64
3,3,3,15,PD,opt,def,90%,1,3,5668,6859,0,He chose based on the decision that will maximize his/her profits.,batch2,3025,live,4,complete,0.64
4,4,0,12,PD,opt,def,90%,1,4,6789,7765,0,He chose based on the decision that will maximize his/her profits.,batch2,3025,live,4,complete,0.64
5,5,0,8,SH,opt,def,90%,0,4,4180,5212,0,He chose based on the decision that will maximize his/her profits.,batch2,3025,live,4,complete,0.64
6,6,10,12,SG,opt,coop,90%,0,4,6958,8742,0,He chose based on the decision that will maximize his/her profits.,batch2,3025,live,4,complete,0.64
7,7,10,5,HG,opt,coop,90%,1,5,4429,5485,0,He chose based on the decision that will maximize his/her profits.,batch2,3025,live,4,complete,0.64
8,8,10,8,HG,opt,coop,90%,1,6,3212,4308,0,He chose based on the decision that will maximize his/her profits.,batch2,3025,live,4,complete,0.64
9,9,10,15,SG,opt,coop,70%,0,6,3036,4692,0,He chose based on the decision that will maximize his/her profits.,batch2,3025,live,4,complete,0.64
10,10,3,8,SH,opt,def,40%,0,6,2974,4422,0,He chose based on the decision that will maximize his/her profits.,batch2,3025,live,4,complete,0.64
11,11,3,12,PD,opt,def,80%,1,7,2773,5189,0,He chose based on the decision that will maximize his/her profits.,batch2,3025,live,4,complete,0.64
12,12,7,15,SG,opt,def,80%,1,8,3300,4740,0,He chose based on the decision that will maximize his/her profits.,batch2,3025,live,4,complete,0.64
13,13,7,5,HG,opt,coop,90%,1,9,2189,3797,0,He chose based on the decision that will maximize his/her profits.,batch2,3025,live,4,complete,0.64
14,14,3,5,SH,opt,coop,90%,1,10,1885,3101,0,He chose based on the decision that will maximize his/her profits.,batch2,3025,live,4,complete,0.64
15,15,0,15,PD,opt,def,80%,1,11,1333,3037,0,He chose based on the decision that will maximize his/her profits.,batch2,3025,live,4,complete,0.64
16,0,7,15,SG,pess,coop,70%,1,12,5027,7275,1,Player D.T. focused on maximizing earnings.,batch2,3025,live,4,complete,0.64
17,1,7,5,HG,pess,coop,80%,1,13,1836,2804,1,Player D.T. focused on maximizing earnings.,batch2,3025,live,4,complete,0.64
18,2,3,8,SH,pess,coop,70%,0,13,1668,3556,1,Player D.T. focused on maximizing earnings.,batch2,3025,live,4,complete,0.64
19,3,0,12,PD,pess,def,70%,1,14,2374,4069,1,Player D.T. focused on maximizing earnings.,batch2,3025,live,4,complete,0.64
20,4,7,8,HG,pess,coop,70%,1,15,2693,4181,1,Player D.T. focused on maximizing earnings.,batch2,3025,live,4,complete,0.64
21,5,0,8,SH,pess,def,90%,1,16,4371,5292,1,Player D.T. focused on maximizing earnings.,batch2,3025,live,4,complete,0.64
22,6,10,15,SG,pess,coop,90%,1,17,3714,5274,1,Player D.T. focused on maximizing earnings.,batch2,3025,live,4,complete,0.64
23,7,0,15,PD,pess,def,80%,1,18,2839,3950,1,Player D.T. focused on maximizing earnings.,batch2,3025,live,4,complete,0.64
24,8,10,5,HG,pess,coop,90%,1,19,1924,3236,1,Player D.T. focused on maximizing earnings.,batch2,3025,live,4,complete,0.64
25,9,3,5,SH,pess,coop,60%,0,19,2326,3533,1,Player D.T. focused on maximizing earnings.,batch2,3025,live,4,complete,0.64
26,10,3,15,PD,pess,def,100%,1,20,3261,4773,1,Player D.T. focused on maximizing earnings.,batch2,3025,live,4,complete,0.64
27,11,10,12,SG,pess,coop,90%,1,21,2643,3939,1,Player D.T. focused on maximizing earnings.,batch2,3025,live,4,complete,0.64
28,12,0,5,SH,pess,def,70%,1,22,2252,3452,1,Player D.T. focused on maximizing earnings.,batch2,3025,live,4,complete,0.64
29,13,3,12,PD,pess,def,80%,1,23,3004,4284,1,Player D.T. focused on maximizing earnings.,batch2,3025,live,4,complete,0.64
30,14,7,12,SG,pess,def,90%,0,23,3909,5029,1,Player D.T. focused on maximizing earnings.,batch2,3025,live,4,complete,0.64
31,15,10,8,HG,pess,coop,80%,1,24,2077,3181,1,Player D.T. focused on maximizing earnings.,batch2,3025,live,4,complete,0.64
0,0,7,15,SG,pess,def,60%,0,0,3907,5363,0,maximize their points,batch2,3026,live,4,complete,0.41
1,1,0,12,PD,pess,coop,70%,0,0,3096,5391,0,maximize their points,batch2,3026,live,4,complete,0.41
2,2,3,5,SH,pess,coop,70%,0,0,3803,6123,0,maximize their points,batch2,3026,live,4,complete,0.41
3,3,7,5,HG,pess,coop,100%,1,1,3793,6368,0,maximize their points,batch2,3026,live,4,complete,0.41
4,4,3,12,PD,pess,def,70%,1,2,2443,4252,0,maximize their points,batch2,3026,live,4,complete,0.41
5,5,7,8,HG,pess,coop,70%,1,3,3029,4428,0,maximize their points,batch2,3026,live,4,complete,0.41
6,6,0,8,SH,pess,def,90%,1,4,2594,4955,0,maximize their points,batch2,3026,live,4,complete,0.41
7,7,10,15,SG,pess,def,80%,0,4,2883,4699,0,maximize their points,batch2,3026,live,4,complete,0.41
8,8,10,12,SG,pess,def,70%,0,4,9867,11219,0,maximize their points,batch2,3026,live,4,complete,0.41
9,9,0,15,PD,pess,def,90%,1,5,4236,5804,0,maximize their points,batch2,3026,live,4,complete,0.41
10,10,0,5,SH,pess,def,60%,1,6,4957,6684,0,maximize their points,batch2,3026,live,4,complete,0.41
11,11,10,8,HG,pess,coop,90%,1,7,6685,7885,0,maximize their points,batch2,3026,live,4,complete,0.41
12,12,7,12,SG,pess,coop,70%,1,8,7925,11165,0,maximize their points,batch2,3026,live,4,complete,0.41
13,13,3,8,SH,pess,def,80%,1,9,5120,7689,0,maximize their points,batch2,3026,live,4,complete,0.41
14,14,3,15,PD,pess,def,90%,1,10,4449,8025,0,maximize their points,batch2,3026,live,4,complete,0.41
15,15,10,5,HG,pess,coop,100%,1,11,4268,6196,0,maximize their points,batch2,3026,live,4,complete,0.41
16,0,0,12,PD,opt,def,90%,1,12,8081,9960,1,choose the option with the chance for the highest reward,batch2,3026,live,4,complete,0.41
17,1,7,5,HG,opt,coop,90%,1,13,3770,5202,1,choose the option with the chance for the highest reward,batch2,3026,live,4,complete,0.41
18,2,10,12,SG,opt,coop,90%,0,13,5339,6539,1,choose the option with the chance for the highest reward,batch2,3026,live,4,complete,0.41
19,3,3,5,SH,opt,coop,80%,1,14,5180,12276,1,choose the option with the chance for the highest reward,batch2,3026,live,4,complete,0.41
20,4,0,8,SH,opt,def,90%,0,14,3810,5474,1,choose the option with the chance for the highest reward,batch2,3026,live,4,complete,0.41
21,5,0,15,PD,opt,def,60%,1,15,4424,5520,1,choose the option with the chance for the highest reward,batch2,3026,live,4,complete,0.41
22,6,10,5,HG,opt,coop,100%,1,16,2905,5529,1,choose the option with the chance for the highest reward,batch2,3026,live,4,complete,0.41
23,7,7,12,SG,opt,def,80%,1,17,5810,7915,1,choose the option with the chance for the highest reward,batch2,3026,live,4,complete,0.41
24,8,3,15,PD,opt,def,70%,1,18,3547,4923,1,choose the option with the chance for the highest reward,batch2,3026,live,4,complete,0.41
25,9,10,15,SG,opt,coop,50%,0,18,3957,5868,1,choose the option with the chance for the highest reward,batch2,3026,live,4,complete,0.41
26,10,7,8,HG,opt,coop,90%,1,19,2628,3572,1,choose the option with the chance for the highest reward,batch2,3026,live,4,complete,0.41
27,11,0,5,SH,opt,coop,60%,1,20,3511,4870,1,choose the option with the chance for the highest reward,batch2,3026,live,4,complete,0.41
28,12,10,8,HG,opt,coop,100%,1,21,2508,3844,1,choose the option with the chance for the highest reward,batch2,3026,live,4,complete,0.41
29,13,7,15,SG,opt,def,90%,1,22,1883,3707,1,choose the option with the chance for the highest reward,batch2,3026,live,4,complete,0.41
30,14,3,8,SH,opt,coop,100%,1,23,2451,3570,1,choose the option with the chance for the highest reward,batch2,3026,live,4,complete,0.41
31,15,3,12,PD,opt,def,100%,1,24,4978,6954,1,choose the option with the chance for the highest reward,batch2,3026,live,4,complete,0.41
0,0,3,12,PD,pess,def,90%,1,1,5509,7337,0,Maximize their earnings,batch2,3027,live,4,complete,0.68
1,1,7,8,HG,pess,coop,100%,1,2,3999,6706,0,Maximize their earnings,batch2,3027,live,4,complete,0.68
2,2,3,8,SH,pess,def,80%,1,3,3749,6169,0,Maximize their earnings,batch2,3027,live,4,complete,0.68
3,3,7,12,SG,pess,coop,60%,1,4,4076,5456,0,Maximize their earnings,batch2,3027,live,4,complete,0.68
4,4,0,15,PD,pess,def,100%,1,5,2763,4780,0,Maximize their earnings,batch2,3027,live,4,complete,0.68
5,5,0,8,SH,pess,def,100%,1,6,3124,4632,0,Maximize their earnings,batch2,3027,live,4,complete,0.68
6,6,7,15,SG,pess,def,60%,0,6,4144,5344,0,Maximize their earnings,batch2,3027,live,4,complete,0.68
7,7,7,5,HG,pess,coop,100%,1,7,4329,5896,0,Maximize their earnings,batch2,3027,live,4,complete,0.68
8,8,3,15,PD,pess,def,100%,1,8,2801,4100,0,Maximize their earnings,batch2,3027,live,4,complete,0.68
9,9,0,5,SH,pess,def,60%,1,9,3747,5059,0,Maximize their earnings,batch2,3027,live,4,complete,0.68
10,10,10,5,HG,pess,coop,100%,1,10,2196,3700,0,Maximize their earnings,batch2,3027,live,4,complete,0.68
11,11,10,15,SG,pess,coop,70%,1,11,2939,4127,0,Maximize their earnings,batch2,3027,live,4,complete,0.68
12,12,10,12,SG,pess,coop,100%,1,12,2182,3913,0,Maximize their earnings,batch2,3027,live,4,complete,0.68
13,13,0,12,PD,pess,def,100%,1,13,2167,5339,0,Maximize their earnings,batch2,3027,live,4,complete,0.68
14,14,3,5,SH,pess,coop,80%,0,13,3421,6321,0,Maximize their earnings,batch2,3027,live,4,complete,0.68
15,15,10,8,HG,pess,coop,100%,1,14,2930,4598,0,Maximize their earnings,batch2,3027,live,4,complete,0.68
16,0,3,5,SH,opt,def,80%,0,14,7931,9390,1,Get the absolute maximum payout for themselves,batch2,3027,live,4,complete,0.68
17,1,0,15,PD,opt,def,100%,1,15,2190,3394,1,Get the absolute maximum payout for themselves,batch2,3027,live,4,complete,0.68
18,2,7,8,HG,opt,coop,80%,1,16,4324,5703,1,Get the absolute maximum payout for themselves,batch2,3027,live,4,complete,0.68
19,3,10,12,SG,opt,coop,60%,0,16,5181,6353,1,Get the absolute maximum payout for themselves,batch2,3027,live,4,complete,0.68
20,4,7,12,SG,opt,def,100%,1,17,1511,2727,1,Get the absolute maximum payout for themselves,batch2,3027,live,4,complete,0.68
21,5,10,8,HG,opt,coop,100%,1,18,2235,3532,1,Get the absolute maximum payout for themselves,batch2,3027,live,4,complete,0.68
22,6,0,5,SH,opt,coop,100%,1,19,1831,3015,1,Get the absolute maximum payout for themselves,batch2,3027,live,4,complete,0.68
23,7,0,12,PD,opt,def,100%,1,20,1910,3238,1,Get the absolute maximum payout for themselves,batch2,3027,live,4,complete,0.68
24,8,7,5,HG,opt,coop,100%,1,21,1895,3415,1,Get the absolute maximum payout for themselves,batch2,3027,live,4,complete,0.68
25,9,3,8,SH,opt,coop,100%,1,22,1659,3051,1,Get the absolute maximum payout for themselves,batch2,3027,live,4,complete,0.68
26,10,3,12,PD,opt,def,100%,1,23,1545,3161,1,Get the absolute maximum payout for themselves,batch2,3027,live,4,complete,0.68
27,11,7,15,SG,opt,def,100%,1,24,2244,3572,1,Get the absolute maximum payout for themselves,batch2,3027,live,4,complete,0.68
28,12,3,15,PD,opt,def,100%,1,25,1649,2993,1,Get the absolute maximum payout for themselves,batch2,3027,live,4,complete,0.68
29,13,10,5,HG,opt,coop,100%,1,26,1622,3094,1,Get the absolute maximum payout for themselves,batch2,3027,live,4,complete,0.68
30,14,10,15,SG,opt,def,100%,1,27,1810,3042,1,Get the absolute maximum payout for themselves,batch2,3027,live,4,complete,0.68
31,15,0,8,SH,opt,coop,100%,1,28,1739,3035,1,Get the absolute maximum payout for themselves,batch2,3027,live,4,complete,0.68
0,0,0,12,PD,pess,coop,70%,0,0,7603,11511,0,I think they were just choosing randomly and not even considering the amount at all.,batch2,3031,live,4,complete,0.61
1,1,7,5,HG,pess,coop,50%,1,1,4757,9204,0,I think they were just choosing randomly and not even considering the amount at all.,batch2,3031,live,4,complete,0.61
2,2,10,12,SG,pess,def,70%,0,1,2689,5937,0,I think they were just choosing randomly and not even considering the amount at all.,batch2,3031,live,4,complete,0.61
3,3,3,5,SH,pess,coop,100%,0,1,2701,4604,0,I think they were just choosing randomly and not even considering the amount at all.,batch2,3031,live,4,complete,0.61
4,4,0,8,SH,pess,coop,50%,0,1,3987,8272,0,I think they were just choosing randomly and not even considering the amount at all.,batch2,3031,live,4,complete,0.61
5,5,0,15,PD,pess,def,40%,1,2,6571,8410,0,I think they were just choosing randomly and not even considering the amount at all.,batch2,3031,live,4,complete,0.61
6,6,10,5,HG,pess,coop,30%,1,3,3730,5586,0,I think they were just choosing randomly and not even considering the amount at all.,batch2,3031,live,4,complete,0.61
7,7,7,12,SG,pess,def,20%,0,3,12894,14414,0,I think they were just choosing randomly and not even considering the amount at all.,batch2,3031,live,4,complete,0.61
8,8,3,15,PD,pess,def,20%,1,4,2241,3813,0,I think they were just choosing randomly and not even considering the amount at all.,batch2,3031,live,4,complete,0.61
9,9,10,15,SG,pess,def,60%,0,4,2447,4335,0,I think they were just choosing randomly and not even considering the amount at all.,batch2,3031,live,4,complete,0.61
10,10,7,8,HG,pess,coop,50%,1,5,2507,4499,0,I think they were just choosing randomly and not even considering the amount at all.,batch2,3031,live,4,complete,0.61
11,11,0,5,SH,pess,coop,100%,0,5,2636,5095,0,I think they were just choosing randomly and not even considering the amount at all.,batch2,3031,live,4,complete,0.61
12,12,10,8,HG,pess,coop,40%,1,6,6312,24065,0,I think they were just choosing randomly and not even considering the amount at all.,batch2,3031,live,4,complete,0.61
13,13,7,15,SG,pess,def,10%,0,6,2789,4420,0,I think they were just choosing randomly and not even considering the amount at all.,batch2,3031,live,4,complete,0.61
14,14,3,8,SH,pess,coop,10%,0,6,1919,3747,0,I think they were just choosing randomly and not even considering the amount at all.,batch2,3031,live,4,complete,0.61
15,15,3,12,PD,pess,coop,10%,0,6,2224,3582,0,I think they were just choosing randomly and not even considering the amount at all.,batch2,3031,live,4,complete,0.61
16,0,7,15,SG,opt,coop,50%,0,6,3376,5536,1,"I think they wanted to maximize their earnings, so they chose the one that would get them the most regardless of if the opponent would get 0.",batch2,3031,live,4,complete,0.61
17,1,7,5,HG,opt,coop,50%,1,7,2109,3857,1,"I think they wanted to maximize their earnings, so they chose the one that would get them the most regardless of if the opponent would get 0.",batch2,3031,live,4,complete,0.61
18,2,3,8,SH,opt,coop,50%,1,8,2894,4638,1,"I think they wanted to maximize their earnings, so they chose the one that would get them the most regardless of if the opponent would get 0.",batch2,3031,live,4,complete,0.61
19,3,0,12,PD,opt,def,50%,1,9,2026,3549,1,"I think they wanted to maximize their earnings, so they chose the one that would get them the most regardless of if the opponent would get 0.",batch2,3031,live,4,complete,0.61
20,4,7,8,HG,opt,coop,80%,1,10,2502,3957,1,"I think they wanted to maximize their earnings, so they chose the one that would get them the most regardless of if the opponent would get 0.",batch2,3031,live,4,complete,0.61
21,5,0,8,SH,opt,coop,100%,1,11,2101,3461,1,"I think they wanted to maximize their earnings, so they chose the one that would get them the most regardless of if the opponent would get 0.",batch2,3031,live,4,complete,0.61
22,6,10,15,SG,opt,def,100%,1,12,2246,4025,1,"I think they wanted to maximize their earnings, so they chose the one that would get them the most regardless of if the opponent would get 0.",batch2,3031,live,4,complete,0.61
23,7,0,15,PD,opt,def,100%,1,13,1604,2883,1,"I think they wanted to maximize their earnings, so they chose the one that would get them the most regardless of if the opponent would get 0.",batch2,3031,live,4,complete,0.61
24,8,10,5,HG,opt,coop,100%,1,14,2245,4088,1,"I think they wanted to maximize their earnings, so they chose the one that would get them the most regardless of if the opponent would get 0.",batch2,3031,live,4,complete,0.61
25,9,3,5,SH,opt,coop,100%,1,15,1784,3340,1,"I think they wanted to maximize their earnings, so they chose the one that would get them the most regardless of if the opponent would get 0.",batch2,3031,live,4,complete,0.61
26,10,3,15,PD,opt,def,100%,1,16,1932,4171,1,"I think they wanted to maximize their earnings, so they chose the one that would get them the most regardless of if the opponent would get 0.",batch2,3031,live,4,complete,0.61
27,11,10,12,SG,opt,def,100%,1,17,1674,3274,1,"I think they wanted to maximize their earnings, so they chose the one that would get them the most regardless of if the opponent would get 0.",batch2,3031,live,4,complete,0.61
28,12,0,5,SH,opt,coop,100%,1,18,1829,3541,1,"I think they wanted to maximize their earnings, so they chose the one that would get them the most regardless of if the opponent would get 0.",batch2,3031,live,4,complete,0.61
29,13,3,12,PD,opt,def,100%,1,19,1839,3189,1,"I think they wanted to maximize their earnings, so they chose the one that would get them the most regardless of if the opponent would get 0.",batch2,3031,live,4,complete,0.61
30,14,7,12,SG,opt,def,100%,1,20,1576,3277,1,"I think they wanted to maximize their earnings, so they chose the one that would get them the most regardless of if the opponent would get 0.",batch2,3031,live,4,complete,0.61
31,15,10,8,HG,opt,coop,100%,1,21,2107,5183,1,"I think they wanted to maximize their earnings, so they chose the one that would get them the most regardless of if the opponent would get 0.",batch2,3031,live,4,complete,0.61
0,0,3,5,SH,opt,coop,50%,1,1,4047,7183,0,Chose the color that gets them the most points,batch2,3032,live,4,complete,0.48
1,1,0,15,PD,opt,coop,50%,0,1,3135,6503,0,Chose the color that gets them the most points,batch2,3032,live,4,complete,0.48
2,2,7,8,HG,opt,coop,50%,1,2,4114,6550,0,Chose the color that gets them the most points,batch2,3032,live,4,complete,0.48
3,3,10,12,SG,opt,def,50%,1,3,3020,4798,0,Chose the color that gets them the most points,batch2,3032,live,4,complete,0.48
4,4,7,12,SG,opt,def,60%,1,4,2437,4109,0,Chose the color that gets them the most points,batch2,3032,live,4,complete,0.48
5,5,10,8,HG,opt,coop,60%,1,5,2555,5382,0,Chose the color that gets them the most points,batch2,3032,live,4,complete,0.48
6,6,0,5,SH,opt,coop,70%,1,6,1746,3082,0,Chose the color that gets them the most points,batch2,3032,live,4,complete,0.48
7,7,0,12,PD,opt,def,70%,1,7,2407,3441,0,Chose the color that gets them the most points,batch2,3032,live,4,complete,0.48
8,8,7,5,HG,opt,coop,70%,1,8,3045,5185,0,Chose the color that gets them the most points,batch2,3032,live,4,complete,0.48
9,9,3,8,SH,opt,coop,80%,1,9,2148,3577,0,Chose the color that gets them the most points,batch2,3032,live,4,complete,0.48
10,10,3,12,PD,opt,def,80%,1,10,1514,3070,0,Chose the color that gets them the most points,batch2,3032,live,4,complete,0.48
11,11,7,15,SG,opt,def,80%,1,11,1422,2650,0,Chose the color that gets them the most points,batch2,3032,live,4,complete,0.48
12,12,3,15,PD,opt,def,90%,1,12,1955,3213,0,Chose the color that gets them the most points,batch2,3032,live,4,complete,0.48
13,13,10,5,HG,opt,coop,80%,1,13,1744,3158,0,Chose the color that gets them the most points,batch2,3032,live,4,complete,0.48
14,14,10,15,SG,opt,def,90%,1,14,1806,4508,0,Chose the color that gets them the most points,batch2,3032,live,4,complete,0.48
15,15,0,8,SH,opt,coop,90%,1,15,1684,3194,0,Chose the color that gets them the most points,batch2,3032,live,4,complete,0.48
16,0,3,12,PD,pess,coop,50%,0,15,7936,9888,1,Get more money than the opponent,batch2,3032,live,4,complete,0.48
17,1,7,8,HG,pess,coop,70%,1,16,1991,4089,1,Get more money than the opponent,batch2,3032,live,4,complete,0.48
18,2,3,8,SH,pess,coop,70%,0,16,2668,4248,1,Get more money than the opponent,batch2,3032,live,4,complete,0.48
19,3,7,12,SG,pess,def,50%,0,16,3140,5090,1,Get more money than the opponent,batch2,3032,live,4,complete,0.48
20,4,0,15,PD,pess,def,50%,1,17,3176,5454,1,Get more money than the opponent,batch2,3032,live,4,complete,0.48
21,5,0,8,SH,pess,coop,50%,0,17,1870,3384,1,Get more money than the opponent,batch2,3032,live,4,complete,0.48
22,6,7,15,SG,pess,def,50%,0,17,2825,4023,1,Get more money than the opponent,batch2,3032,live,4,complete,0.48
23,7,7,5,HG,pess,coop,40%,1,18,1957,3936,1,Get more money than the opponent,batch2,3032,live,4,complete,0.48
24,8,3,15,PD,pess,def,40%,1,19,1918,3670,1,Get more money than the opponent,batch2,3032,live,4,complete,0.48
25,9,0,5,SH,pess,def,40%,1,20,6437,8236,1,Get more money than the opponent,batch2,3032,live,4,complete,0.48
26,10,10,5,HG,pess,coop,50%,1,21,2888,4911,1,Get more money than the opponent,batch2,3032,live,4,complete,0.48
